TOPIC_CD,sdtm_cat,sdtm_sub_cat,adam_param_code,SDTM_DOMAIN,activity,activity_instance,specimen,laterality,location,position,legacy_description,sub_domain_class,GENERAL_DOMAIN_CLASS,stdm_codelist,sdtm_variable,stdm_codelist_name,sdtm_variable_name,std_unit,unit_dimension,molecular_weight,si_unit,us_conv_unit,fasting,loinc,Response list,Assm. group,Assm. subgroup
ACUTE KIDNEY INJURY,AE REQUIRING ADDITIONAL DATA,,AKI,CE,Acute Kidney Injury,Acute Kidney Injury,,,,,Acute Kidney Injury,PERIODIC,EVENTS,NO_LINKAGE_NEEDED,No Linkage Needed,NO_LINKAGE_NEEDED,No Linkage Needed,,,,,,,,,AE Requiring Additional Data,Acute Kidney Injury
ACUTE_KIDNEY_INJURY_ACUTE_URINARY_TRACT_INFECTION,AE REQUIRING ADDITIONAL DATA,ACUTE KIDNEY INJURY CONDITIONS,AKIAURIN,FA,Acute Kidney Injury Conditions,Acute Kidney Injury - Acute Urinary Tract Infection,,,,,"Acute Kidney Injury: Was there evidence or suspicion of conditions which could explain or have contributed to the event: 
Acute urinary tract infection",CATEGORIC FINDING,FINDINGS,FATESTCD,AKIAURIN,FATEST,AKI-Acute Urinary Tract Infection,,,,,,,,AKI_CQ,AE Requiring Additional Data,Acute Kidney Injury
ACUTE_KIDNEY_INJURY_AMINOGLYCOSIDE,AE REQUIRING ADDITIONAL DATA,ACUTE KIDNEY INJURY NEPHROTOXIC TREATMENTS,AKIAMINO,FA,Acute Kidney Injury Nephrotoxic Treatments,Acute Kidney Injury -  Aminoglycoside(s),,,,,"Acute Kidney Injury: Has the subject received any nephrotoxic drug(s)/agent(s) within the last 3 months.
Aminoglycoside(s)",CATEGORIC FINDING,FINDINGS,FATESTCD,AKIAMINO,FATEST,AKI-Nephrotoxic Treatment Aminoglycoside,,,,,,,,AKI_CQ,AE Requiring Additional Data,Acute Kidney Injury
ACUTE_KIDNEY_INJURY_CHRONIC_URINARY_TRACT_INFECTION,AE REQUIRING ADDITIONAL DATA,ACUTE KIDNEY INJURY CONDITIONS,AKICURIN,FA,Acute Kidney Injury Conditions,Acute Kidney Injury - Chronic Urinary Tract Infection,,,,,"Acute Kidney Injury: Was there evidence or suspicion of conditions which could explain or have contributed to the event: 
Chronic urinary tract infection",CATEGORIC FINDING,FINDINGS,FATESTCD,AKICURIN,FATEST,AKI-Chronic Urinary Tract Infection,,,,,,,,AKI_CQ,AE Requiring Additional Data,Acute Kidney Injury
ACUTE_KIDNEY_INJURY_CONDITIONS,AE REQUIRING ADDITIONAL DATA,ACUTE KIDNEY INJURY CONDITIONS,AKICONDI,FA,Acute Kidney Injury Conditions,Acute Kidney Injury - Conditions,,,,,Acute Kidney Injury: Was there evidence or suspicion of conditions which could explain or have contributed to the event,CATEGORIC FINDING,FINDINGS,FATESTCD,AKICONDI,FATEST,AKI-Conditions,,,,,,,,YESNO,AE Requiring Additional Data,Acute Kidney Injury
ACUTE_KIDNEY_INJURY_CONDITIONS_OTHER,AE REQUIRING ADDITIONAL DATA,ACUTE KIDNEY INJURY CONDITIONS,AKICONOT,FA,Acute Kidney Injury Conditions,Acute Kidney Injury - Conditions Other,,,,,"Acute Kidney Injury: Was there evidence or suspicion of conditions which could explain or have contributed to the event: 
Other, specify",CATEGORIC FINDING,FINDINGS,FATESTCD,AKICONOT,FATEST,AKI-Conditions Other,,,,,,,,AKI_CQ,AE Requiring Additional Data,Acute Kidney Injury
ACUTE_KIDNEY_INJURY_CONNECTIVE_TISSUE_DISEASE_OR_VASCULITIS,AE REQUIRING ADDITIONAL DATA,ACUTE KIDNEY INJURY CONDITIONS,AKICTDIV,FA,Acute Kidney Injury Conditions,Acute Kidney Injury - Connective Tissue Disease or Vasculitis,,,,,"Acute Kidney Injury: Was there evidence or suspicion of conditions which could explain or have contributed to the event: 
Connective tissue disease or vasculitis",CATEGORIC FINDING,FINDINGS,FATESTCD,AKICTDIV,FATEST,AKI-Connective Tissue Disease/Vasculitis,,,,,,,,AKI_CQ,AE Requiring Additional Data,Acute Kidney Injury
ACUTE_KIDNEY_INJURY_CT_SCAN,AE REQUIRING ADDITIONAL DATA,ACUTE KIDNEY INJURY IMAGING,AKICTSCA,FA,Acute Kidney Injury Imaging,Acute Kidney Injury - CT Scan Performed,,,,,"Acute Kidney Injury: Was imaging performed in relation to the event: 
CT Scan",CATEGORIC FINDING,FINDINGS,FATESTCD,AKICTSCA,FATEST,AKI-CT Scan,,,,,,,,AKI_CQ,AE Requiring Additional Data,Acute Kidney Injury
ACUTE_KIDNEY_INJURY_FAMILY_HISTORY,AE REQUIRING ADDITIONAL DATA,,AKIFAMHI,FA,Acute Kidney Injury - Family History of Kidney Disease,Acute Kidney Injury - Family History of Kidney Disease,,,,,Acute Kidney Injury: Is there any family history of kidney disease,CATEGORIC FINDING,FINDINGS,FATESTCD,AKIFAMHI,FATEST,AKI-Family History of Kidney Disease,,,,,,,,YESNO,AE Requiring Additional Data,Acute Kidney Injury
ACUTE_KIDNEY_INJURY_HYPERTENSION,AE REQUIRING ADDITIONAL DATA,ACUTE KIDNEY INJURY CONDITIONS,AKIHYPER,FA,Acute Kidney Injury Conditions,Acute Kidney Injury - Hypertension,,,,,"Acute Kidney Injury: Was there evidence or suspicion of conditions which could explain or have contributed to the event: 
Hypertension",CATEGORIC FINDING,FINDINGS,FATESTCD,AKIHYPER,FATEST,AKI-Hypertension,,,,,,,,AKI_CQ,AE Requiring Additional Data,Acute Kidney Injury
ACUTE_KIDNEY_INJURY_IMAGING_OTHER,AE REQUIRING ADDITIONAL DATA,ACUTE KIDNEY INJURY IMAGING,AKIIMOTH,FA,Acute Kidney Injury Imaging,Acute Kidney Injury - Other Imaging Performed,,,,,"Acute Kidney Injury: Was imaging performed in relation to the event: Other, specify",CATEGORIC FINDING,FINDINGS,FATESTCD,AKIIMOTH,FATEST,AKI-Other Imaging Performed,,,,,,,,AKI_CQ,AE Requiring Additional Data,Acute Kidney Injury
ACUTE_KIDNEY_INJURY_IMAGING_PERFORMED,AE REQUIRING ADDITIONAL DATA,ACUTE KIDNEY INJURY IMAGING,AKIIMAGE,FA,Acute Kidney Injury Imaging,Acute Kidney Injury - Imaging Performed,,,,,Acute Kidney Injury: Was imaging performed in relation to the event,CATEGORIC FINDING,FINDINGS,FATESTCD,AKIIMAGE,FATEST,AKI-Imaging Performed,,,,,,,,YESNO,AE Requiring Additional Data,Acute Kidney Injury
ACUTE_KIDNEY_INJURY_IMAGING_RESULTS,AE REQUIRING ADDITIONAL DATA,ACUTE KIDNEY INJURY IMAGING,AKIHISTO,FA,Acute Kidney Injury Imaging,Acute Kidney Injury - Summary of Imaging Results,,,,,Acute Kidney Injury: Was imaging performed in relation to the event. Summary of imaging results,TEXTUAL FINDING,FINDINGS,FATESTCD,AKIHISTO,FATEST,AKI-Summary of Imaging Results,,,,,,,,,AE Requiring Additional Data,Acute Kidney Injury
ACUTE_KIDNEY_INJURY_INCREASE_SERUM_CREATININE_WITHIN_48_HOURS,AE REQUIRING ADDITIONAL DATA,ACUTE KIDNEY INJURY PRESENT,AKISC48S,FA,Acute Kidney Injury Present,Acute Kidney Injury - Increase Serum Creat >= 0.3 mg/dL Within 48 Hours,SERUM,,,,"Acute Kidney Injury: How did the event present itself. 
Increase in serum creatinine >= 0.3 mg/dL within 48 hours",CATEGORIC FINDING,FINDINGS,FATESTCD,AKISC48,FATEST,AKI-Incr Serum Crea >= 0.3 mg/dL Wth 48H,,,,,,,,AKI_CQ,AE Requiring Additional Data,Acute Kidney Injury
ACUTE_KIDNEY_INJURY_INCREASE_SERUM_CREATININE_WITHIN_7_DAYS,AE REQUIRING ADDITIONAL DATA,ACUTE KIDNEY INJURY PRESENT,AKISCIDS,FA,Acute Kidney Injury Present,Acute Kidney Injury - Increase Serum Creat >= 1.5 Times Baseline Within 7 Days,SERUM,,,,"Acute Kidney Injury: How did the event present itself. 
Increase in serum creatinine to >= 1.5 times baseline within 7 days",CATEGORIC FINDING,FINDINGS,FATESTCD,AKISCI7D,FATEST,AKI-Incr Serum Crea >= 1.5 Baseli Wth 7D,,,,,,,,AKI_CQ,AE Requiring Additional Data,Acute Kidney Injury
ACUTE_KIDNEY_INJURY_INITIATION_OF_RAS_BLOCKADE,AE REQUIRING ADDITIONAL DATA,ACUTE KIDNEY INJURY NEPHROTOXIC TREATMENTS,AKIRASBL,FA,Acute Kidney Injury Nephrotoxic Treatments,Acute Kidney Injury - Initiation of RAS Blockade,,,,,"Acute Kidney Injury: Has the subject received any nephrotoxic drug(s)/agent(s) within the last 3 months:
Initiation of RAS Blockade",CATEGORIC FINDING,FINDINGS,FATESTCD,AKIRASBL,FATEST,AKI-Nephrotoxic Treatment RAS Blockade,,,,,,,,AKI_CQ,AE Requiring Additional Data,Acute Kidney Injury
ACUTE_KIDNEY_INJURY_IV_CONTRAST,AE REQUIRING ADDITIONAL DATA,ACUTE KIDNEY INJURY NEPHROTOXIC TREATMENTS,AKIIVCON,FA,Acute Kidney Injury Nephrotoxic Treatments,Acute Kidney Injury - IV Contrast,,,,,"Acute Kidney Injury: Has the subject received any nephrotoxic drug(s)/agent(s) within the last 3 months:
IV Contrast",CATEGORIC FINDING,FINDINGS,FATESTCD,AKIIVCON,FATEST,AKI-Nephrotoxic Treatment IV Contrast,,,,,,,,AKI_CQ,AE Requiring Additional Data,Acute Kidney Injury
ACUTE_KIDNEY_INJURY_KIDNEY_BIOPSY_HISTOLOGY_RESULTS,AE REQUIRING ADDITIONAL DATA,ACUTE KIDNEY INJURY BIOPSY,AKIBIHIS,FA,Acute Kidney Injury Biopsy,Acute Kidney Injury - Summary of Biopsy Histology Results,,,,,Acute Kidney Injury: Summery of histology results from kidney biopsy,TEXTUAL FINDING,FINDINGS,FATESTCD,AKIBIHIS,FATEST,AKI-Summary of Biopsy Histology Results,,,,,,,,,AE Requiring Additional Data,Acute Kidney Injury
ACUTE_KIDNEY_INJURY_KIDNEY_BIOPSY_PERFORMED,AE REQUIRING ADDITIONAL DATA,ACUTE KIDNEY INJURY BIOPSY,AKIBIOPS,FA,Acute Kidney Injury Biopsy,Acute Kidney Injury - Kidney Biopsy Performed,,,,,Acute Kidney Injury: Was kidney biopsy performed in relation to the event,CATEGORIC FINDING,FINDINGS,FATESTCD,AKIBIOPS,FATEST,AKI-Kidney Biopsy Performed,,,,,,,,YESNO,AE Requiring Additional Data,Acute Kidney Injury
ACUTE_KIDNEY_INJURY_NEPHROTOXIC_TREATMENT_LAST_3_MONTHS,AE REQUIRING ADDITIONAL DATA,ACUTE KIDNEY INJURY NEPHROTOXIC TREATMENTS,AKINDA3M,FA,Acute Kidney Injury Nephrotoxic Treatments,Acute Kidney Injury - Nephrotoxic Treatment Received Within Last 3 Months,,,,,Acute Kidney Injury: Has the subject received any nephrotoxic drug(s)/agent(s) within the last 3 months,CATEGORIC FINDING,FINDINGS,FATESTCD,AKINDA3M,FATEST,AKI-Nephrotoxic Treatment Last 3 Months,,,,,,,,YESNO,AE Requiring Additional Data,Acute Kidney Injury
ACUTE_KIDNEY_INJURY_NEPHROTOXIC_TREATMENT_OTHER,AE REQUIRING ADDITIONAL DATA,ACUTE KIDNEY INJURY NEPHROTOXIC TREATMENTS,AKINDAOT,FA,Acute Kidney Injury Nephrotoxic Treatments,Acute Kidney Injury - Nephrotoxic Treatment Other,,,,,"Acute Kidney Injury: Has the subject received any nephrotoxic drug(s)/agent(s) within the last 3 months:
Nephrotoxic treatment other",CATEGORIC FINDING,FINDINGS,FATESTCD,AKINDAOT,FATEST,AKI-Nephrotoxic Treatment Other,,,,,,,,AKI_CQ,AE Requiring Additional Data,Acute Kidney Injury
ACUTE_KIDNEY_INJURY_NSAID,AE REQUIRING ADDITIONAL DATA,ACUTE KIDNEY INJURY NEPHROTOXIC TREATMENTS,AKINSAID,FA,Acute Kidney Injury Nephrotoxic Treatments,Acute Kidney Injury - NSAIDs,,,,,"Acute Kidney Injury: Has the subject received any nephrotoxic drug(s)/agent(s) within the last 3 months:
Nonsteroidal anti-inflammatory drugs (NSAIDs)",CATEGORIC FINDING,FINDINGS,FATESTCD,AKINSAID,FATEST,AKI-Nephrotoxic Treatment NSAIDs,,,,,,,,AKI_CQ,AE Requiring Additional Data,Acute Kidney Injury
ACUTE_KIDNEY_INJURY_POST-RENAL_OBSTRUCTIVE_DISEASE,AE REQUIRING ADDITIONAL DATA,ACUTE KIDNEY INJURY CONDITIONS,AKIPROBS,FA,Acute Kidney Injury Conditions,Acute Kidney Injury - Post-Renal Obstructive Disease,,,,,"Acute Kidney Injury: Was there evidence or suspicion of conditions which could explain or have contributed to the event: 
Post-renal obstructive disease",CATEGORIC FINDING,FINDINGS,FATESTCD,AKIPROBS,FATEST,AKI-Post-renal Obstructive Disease,,,,,,,,AKI_CQ,AE Requiring Additional Data,Acute Kidney Injury
ACUTE_KIDNEY_INJURY_PRESENT_OTHER,AE REQUIRING ADDITIONAL DATA,ACUTE KIDNEY INJURY PRESENT,AKIPROTH,FA,Acute Kidney Injury Present,Acute Kidney Injury - Present Other,,,,,"Acute Kidney Injury: How did the event present itself. 
Other, specify",CATEGORIC FINDING,FINDINGS,FATESTCD,AKIPROTH,FATEST,AKI-Present Other,,,,,,,,AKI_CQ,AE Requiring Additional Data,Acute Kidney Injury
ACUTE_KIDNEY_INJURY_PRIMARY_GLOMERULONEPHRITIS,AE REQUIRING ADDITIONAL DATA,ACUTE KIDNEY INJURY CONDITIONS,AKIPRGLO,FA,Acute Kidney Injury Conditions,Acute Kidney Injury - Primary Glomerulonephritis,,,,,"Acute Kidney Injury: Was there evidence or suspicion of conditions which could explain or have contributed to the event: 
Primary glomerulonephritis",CATEGORIC FINDING,FINDINGS,FATESTCD,AKIPRGLO,FATEST,AKI-Primary Glomerulonephritis,,,,,,,,AKI_CQ,AE Requiring Additional Data,Acute Kidney Injury
ACUTE_KIDNEY_INJURY_PROGRESSION_OF_CHRONIC_KIDNEY_DISEASE,AE REQUIRING ADDITIONAL DATA,ACUTE KIDNEY INJURY CONDITIONS,AKIPRCKD,FA,Acute Kidney Injury Conditions,Acute Kidney Injury - Progression of Chronic Kidney Disease,,,,,"Acute Kidney Injury: Was there evidence or suspicion of conditions which could explain or have contributed to the event: 
Progression of chronic kidney disease",CATEGORIC FINDING,FINDINGS,FATESTCD,AKIPRCKD,FATEST,AKI-Chronic Kidney Disease Progression,,,,,,,,AKI_CQ,AE Requiring Additional Data,Acute Kidney Injury
ACUTE_KIDNEY_INJURY_RECENT_STREPTOCOCCAL_INFECTION,AE REQUIRING ADDITIONAL DATA,ACUTE KIDNEY INJURY CONDITIONS,AKISTREP,FA,Acute Kidney Injury Conditions,Acute Kidney Injury - Recent Streptococcal Infection,,,,,"Acute Kidney Injury: Was there evidence or suspicion of conditions which could explain or have contributed to the event: 
Recent streptococcal infection",CATEGORIC FINDING,FINDINGS,FATESTCD,AKISTREP,FATEST,AKI-Recent Streptococcal Infection,,,,,,,,AKI_CQ,AE Requiring Additional Data,Acute Kidney Injury
ACUTE_KIDNEY_INJURY_RENAL_ANGIO-IMAGING,AE REQUIRING ADDITIONAL DATA,ACUTE KIDNEY INJURY IMAGING,AKIRANIM,FA,Acute Kidney Injury Imaging,Acute Kidney Injury - Renal Angio-Imaging Performed,,,,,"Acute Kidney Injury: Was imaging performed in relation to the event: 
Renal angio-imaging",CATEGORIC FINDING,FINDINGS,FATESTCD,AKIRANIM,FATEST,AKI-Renal Angio-imaging,,,,,,,,AKI_CQ,AE Requiring Additional Data,Acute Kidney Injury
ACUTE_KIDNEY_INJURY_RENAL_ARTERY_STENOSIS,AE REQUIRING ADDITIONAL DATA,ACUTE KIDNEY INJURY CONDITIONS,AKIREAST,FA,Acute Kidney Injury Conditions,Acute Kidney Injury - Renal Artery Stenosis,,,,,Acute Kidney Injury: Was there evidence or suspicion of conditions which could explain or have contributed to the event: Renal artery stenosis,CATEGORIC FINDING,FINDINGS,FATESTCD,AKIREAST,FATEST,AKI-Renal Artery Stenosis,,,,,,,,AKI_CQ,AE Requiring Additional Data,Acute Kidney Injury
ACUTE_KIDNEY_INJURY_RENAL_VEIN_THROMBOSIS,AE REQUIRING ADDITIONAL DATA,ACUTE KIDNEY INJURY CONDITIONS,AKIREVET,FA,Acute Kidney Injury Conditions,Acute Kidney Injury - Renal Vein Thrombosis,,,,,"Acute Kidney Injury: Was there evidence or suspicion of conditions which could explain or have contributed to the event: 
Renal vein thrombosis",CATEGORIC FINDING,FINDINGS,FATESTCD,AKIREVET,FATEST,AKI-Renal Vein Thrombosis,,,,,,,,AKI_CQ,AE Requiring Additional Data,Acute Kidney Injury
ACUTE_KIDNEY_INJURY_SYSTEMIC_AUTOIMMUNE DISEASE,AE REQUIRING ADDITIONAL DATA,ACUTE KIDNEY INJURY CONDITIONS,AKISYAUD,FA,Acute Kidney Injury Conditions,Acute Kidney Injury - Systemic Autoimmune Disease,,,,,"Acute Kidney Injury: Was there evidence or suspicion of conditions which could explain or have contributed to the event: 
Systemic autoimmune disease",CATEGORIC FINDING,FINDINGS,FATESTCD,AKISYAUD,FATEST,AKI-Systemic Autoimmune Disease,,,,,,,,AKI_CQ,AE Requiring Additional Data,Acute Kidney Injury
ACUTE_KIDNEY_INJURY_ULTRASOUND,AE REQUIRING ADDITIONAL DATA,ACUTE KIDNEY INJURY IMAGING,AKIULTRA,FA,Acute Kidney Injury Imaging,Acute Kidney Injury - Ultrasound Performed,,,,,"Acute Kidney Injury: Was imaging performed in relation to the event: 
Ultrasound",CATEGORIC FINDING,FINDINGS,FATESTCD,AKIULTRA,FATEST,AKI-Ultrasound,,,,,,,,AKI_CQ,AE Requiring Additional Data,Acute Kidney Injury
ACUTE_KIDNEY_INJURY_URINE_VOLUME_FOR_6_HOURS,AE REQUIRING ADDITIONAL DATA,ACUTE KIDNEY INJURY PRESENT,AKIUV6HU,FA,Acute Kidney Injury Present,Acute Kidney Injury - Urine Volume < 0.5 mL/kg/h for 6 Hours,URINE,,,,"Acute Kidney Injury: How did the event present itself. 
Urine volume < 0.5 mL/kg/h for 6 hours",CATEGORIC FINDING,FINDINGS,FATESTCD,AKIUV6H,FATEST,AKI-Urine Vol < 0.5 mL/kg/h for 6 Hours,,,,,,,,AKI_CQ,AE Requiring Additional Data,Acute Kidney Injury
ADJUDICATION OUTCOME,EVENT ADJUDICATION,,ADJOUT,ZA,Adjudication Outcome,Adjudication Outcome,,,,,Sponsor defined: Used for Event Adjudication,CATEGORIC FINDING,FINDINGS,ZATESTCD,ADJOUT,ZATEST,Adjudication Outcome,,,,,,,,CATEGORY_OF_ADJUDICAT_EVENT,Event Adjudication,General
ADVERSE EVENT,ADVERSE EVENT,ADVERSE EVENT,AE,AE,Adverse Event,Adverse Event,,,,,"Any untoward medical occurrence in a patient or clinical investigation subject administered a pharmaceutical product and which does not necessarily have to have a causal relationship with this treatment.
An AE can therefore be any unfavourable and unintended sign (including an abnormal laboratory finding, for example), symptom, or disease temporally associated with the use of a medicinal product, whether or not considered related to the medicinal product.
Note: This includes events from the first trial related activity after the subject has signed the informed consent and
until post treatment follow-up period as defined in the protocol. (SOP 110072 List of Roles/Groups and Definitions within Clinical Research and Observational Studies)",ADVERSE EVENT,EVENTS,NO_LINKAGE_NEEDED,No Linkage Needed,NO_LINKAGE_NEEDED,No Linkage Needed,,,,,,,,,Adverse Event,Adverse Event
ALBUMIN,AE REQUIRING ADDITIONAL DATA,,ALB,LB,Albumin,"Albumin, AE Requiring Additional Data",,,,,"Albumin

For Lab codes in AE Requiring Additional Data, there should be no SCATs",NUMERIC FINDING,FINDINGS,LBTESTCD,ALB,LBTEST,Albumin,g/L,CONCENTRATION,67000.0,g/L,,,,,AE Requiring Additional Data,Laboratory Assessment
ALBUMIN IN URINE,AE REQUIRING ADDITIONAL DATA,RENAL EVENT,ALBU2,LB,Renal Event,Urinary Albumin Excretion,URINE,,,,"Urine albumin excretion.
Code: C64431
CDISC: A measurement of the albumin protein in a biological specimen.
CDISC Synonym(s): Albumin
CDISC Submission Value: ALB
NCI Preferred Term: ALB",TEXTUAL FINDING,FINDINGS,LBTESTCD,ALB,LBTEST,Albumin,,,,,,,,,AE Requiring Additional Data,Laboratory Assessment
ALBUMIN_CREATINE_RATIO,AE REQUIRING ADDITIONAL DATA,,ALBCRAT,LB,Albumin/Creatinine,Albumin/Creatinine,,,,,"CDISC: C74761
A relative measurement (ratio) of the albumin to the creatinine in a biological specimen.",NUMERIC FINDING,FINDINGS,LBTESTCD,ALBCREAT,LBTEST,Albumin/Creatinine,mg/mmol,CONCENTRATION,,,,,,,AE Requiring Additional Data,Laboratory Assessment
ALBUMIN_CREAT_URINE,URINALYSIS,,ALBCRTU,LB,Albumin/Creatinine,Albumin/Creatinine Ratio,URINE,,,,"Albumin/creatinine ratio in urine
CDISC code: C74761
CDISC submission value: ALBCREAT
CDISC synonym(s): Albumin/Creatinine; Microalbumin/Creatinine Ratio
CDISC Description: A relative measurement (ratio or percentage) of the albumin to the creatinine in a biological specimen.
NCI preferred term: Albumin To Creatinine Protein Ratio Measurement

Convert values collected  in mg/g to values in mg/mmol by dividing with 8,84",NUMERIC FINDING,FINDINGS,LBTESTCD,ALBCREAT,LBTEST,Albumin/Creatinine,mg/mmol,CONCENTRATION,,g/L,mg/g,,32294-1,,Laboratory Assessments,Urinalysis
ALBUMIN_N_URINE,URINALYSIS,,ALBU,LB,Albumin,Albumin Urine,URINE,,,,"Molecular Weight (MW): Confirmed by CHHE, Maaloev, 06-06-2013
Albumin in urine
Code: C64431
CDISC: A measurement of the albumin protein in a biological specimen.
CDISC Synonym(s): Albumin
CDISC Submission Value: ALB
NCI Preferred Term: ALB",NUMERIC FINDING,FINDINGS,LBTESTCD,ALB,LBTEST,Albumin,mg/L,CONCENTRATION,67000.0,g/L,,,1754-1,,Laboratory Assessments,Urinalysis
ALBUMIN_SERUM,BIOCHEMISTRY,,ALBS,LB,Albumin,"Albumin, g/dL",SERUM,,,,"Albumin in serum
CDISC code: C64431
CDISC submission value: ALB
CDISC synonym(s): Albumin; Microalbumin
CDISC Description: A measurement of the albumin protein in a biological specimen.
NCI preferred term: Albumin Measurement",NUMERIC FINDING,FINDINGS,LBTESTCD,ALB,LBTEST,Albumin,g/dL,CONCENTRATION,67000.0,g/L,g/L,,61151-7|1751-7|1742-6,,Laboratory Assessments,Biochemistry
ALP,AE REQUIRING ADDITIONAL DATA,,ALP,LB,Alkaline Phosphatase,"Alkaline Phosphatase, AE Requiring Additional Data",,,,,"A measurement of the alkaline phosphatase in a biological specimen.
NCI preferred term: Alkaline Phosphatase Measurement",NUMERIC FINDING,FINDINGS,LBTESTCD,ALP,LBTEST,Alkaline Phosphatase,IU/L,U_IU Concentration,,ukat/L,,,,,AE Requiring Additional Data,Laboratory Assessment
ALT,AE REQUIRING ADDITIONAL DATA,,ALT,LB,Alanine Aminotransferase,"Alanine Aminotransferase, AE Requiring Additional Data",,,,,"A measurement of the alanine aminotransferase in a biological specimen.
NCI preferred term: Alanine Aminotransferase Measurement",NUMERIC FINDING,FINDINGS,LBTESTCD,ALT,LBTEST,Alanine Aminotransferase,U/L,U_IU Concentration,,ukat/L,,,,,AE Requiring Additional Data,Laboratory Assessment
ALT_SERUM,BIOCHEMISTRY,,ALTS,LB,Alanine Aminotransferase,"Alanine Aminotransferase, Biochemistry",SERUM,,,,"Alanine Aminotransferase in Serum
CDISC code: C64433
CDISC submission value: ALT
CDISC synonym(s): Alanine Aminotransferase; SGPT
CDISC Description: A measurement of the alanine aminotransferase in a biological specimen.
NCI preferred term: Alanine Aminotransferase Measurement",NUMERIC FINDING,FINDINGS,LBTESTCD,ALT,LBTEST,Alanine Aminotransferase,U/L,U_IU Concentration,,ukat/L,,,6768-6|1744-2|1742-6|1751-7,,Laboratory Assessments,Biochemistry
AMMONIA,AE REQUIRING ADDITIONAL DATA,,AMMONIA,LB,Ammonia,Ammonia,,,,,A measurement of the ammonia; NH3,NUMERIC FINDING,FINDINGS,LBTESTCD,AMMONIA,LBTEST,Ammonia,mg/L,CONCENTRATION,17.031,,,,,,AE Requiring Additional Data,Laboratory Assessment
AMYLASE,AE REQUIRING ADDITIONAL DATA,,AMYLASE,LB,Amylase,"Amylase, AE Requiring Additional Data",,,,,"CDISC code: C64434
CDISC submission value: AMYLASE
CDISC synonym(s): Amylase
CDISC definition: A measurement of the total enzyme amylase in a biological specimen.
NCI preferred term: Amylase Measurement",NUMERIC FINDING,FINDINGS,LBTESTCD,AMYLASE,LBTEST,Amylase,U/L,U_IU Concentration,,ukat/L,,,,,AE Requiring Additional Data,Laboratory Assessment
AMYLASE_SERUM,BIOCHEMISTRY,,AMYLAES,LB,Amylase,"Amylase, Biochemistry",SERUM,,,,"Amylase in serum
CDISC code: C64434
CDISC submission value: AMYLASE
CDISC synonym(s): Amylase
CDISC Description: A measurement of the total enzyme amylase in a biological specimen.
NCI preferred term: Amylase Measurement",NUMERIC FINDING,FINDINGS,LBTESTCD,AMYLASE,LBTEST,Amylase,U/L,U_IU Concentration,,ukat/L,,,1798-8,,Laboratory Assessments,Biochemistry
AP_SERUM,BIOCHEMISTRY,,ALPS,LB,Alkaline Phosphatase,"Alkaline Phosphatase, Biochemistry",SERUM,,,,"Alkaline phosphatase in serum
CDISC code: C64432
CDISC submission value: ALP
CDISC synonym(s): Alkaline Phosphatase
CDISC Description: A measurement of the alkaline phosphatase in a biological specimen.
NCI preferred term: Alkaline Phosphatase Measurement",NUMERIC FINDING,FINDINGS,LBTESTCD,ALP,LBTEST,Alkaline Phosphatase,U/L,U_IU Concentration,,ukat/L,,,6768-6,,Laboratory Assessments,Biochemistry
AST,AE REQUIRING ADDITIONAL DATA,,AST,LB,Aspartate Aminotransferase,"Aspartate Aminotransferase, AE Requiring Additional Data",,,,,"A measurement of the aspartate aminotransferase in a biological specimen.
NCI preferred term: Aspartate Aminotransferase Measurement",NUMERIC FINDING,FINDINGS,LBTESTCD,AST,LBTEST,Aspartate Aminotransferase,U/L,U_IU Concentration,,ukat/L,,,,,AE Requiring Additional Data,Laboratory Assessment
AST_SERUM,BIOCHEMISTRY,,ASTS,LB,Aspartate Aminotransferase,"Aspartate Aminotransferase, Biochemistry",SERUM,,,,"CDISC code: C64467
CDISC submission value: AST/Aspartate Aminotransferase
CDISC synonym(s): Aspartate Aminotransferase; SGOT
CDISC definition: A measurement of the aspartate aminotransferase in a biological specimen.
NCI preferred term: Aspartate Aminotransferase Measurement",NUMERIC FINDING,FINDINGS,LBTESTCD,AST,LBTEST,Aspartate Aminotransferase,U/L,U_IU Concentration,,ukat/L,,,1920-8,,Laboratory Assessments,Biochemistry
BG_SUPER_GL_ANALYZER,GLUCOSE METABOLISM,,BGSUPGLA,LB,Glucose,BG Super GL Analyzer,,,,,A measurement of the glucose in blood.,NUMERIC FINDING,FINDINGS,LBTESTCD,GLUC,LBTEST,Glucose,mmol/L,CONCENTRATION,180.2,,mg/dL,,,,Laboratory Assessments,Glucose Metabolism
BILDIR,AE REQUIRING ADDITIONAL DATA,,BILDIR,LB,Direct Bilirubin,"Direct Bilirubin, AE Requiring Additional Data",,,,,"CDISC code: C64481
CDISC submission value: BILDIR 
CDISC synonym(s): Direct Bilirubin 
CDISC definition: A measurement of the conjugated or water-soluble bilirubin in a biological specimen.
NCI preferred term: Direct Bilirubin Measurement",NUMERIC FINDING,FINDINGS,LBTESTCD,BILDIR,LBTEST,Direct Bilirubin,umol/L,CONCENTRATION,584.66,umol/L,,,,,AE Requiring Additional Data,Laboratory Assessment
BILI,AE REQUIRING ADDITIONAL DATA,,BILI,LB,Bilirubin,"Bilirubin, AE Requiring Additional Data",,,,,"A measurement of the total bilirubin in a biological specimen.
NCI preferred term: Total Bilirubin Measurement",NUMERIC FINDING,FINDINGS,LBTESTCD,BILI,LBTEST,Bilirubin,umol/L,CONCENTRATION,584.66,umol/L,,,,,AE Requiring Additional Data,Laboratory Assessment
BILIND,AE REQUIRING ADDITIONAL DATA,,BILIND,LB,Indirect Bilirubin,"Indirect Bilirubin, AE Requiring Additional Data",,,,,"CDISC code: C64483
CDISC submission value: BILIND
CDISC synonym(s): Indirect Bilirubin 
CDISC definition: A measurement of the unconjugated or non-water-soluble bilirubin in a biological specimen.
NCI preferred term: Indirect Bilirubin Measurement",NUMERIC FINDING,FINDINGS,LBTESTCD,BILIND,LBTEST,Indirect Bilirubin,umol/L,CONCENTRATION,584.66,umol/L,,,,,AE Requiring Additional Data,Laboratory Assessment
BILIRUBIN_SERUM,BIOCHEMISTRY,,BILIS3,LB,Bilirubin,"Bilirubin, Biochemistry",SERUM,,,,"CDISC code: C38037
CDISC submission value: BILI
CDISC synonym(s): Bilirubin; Total Bilirubin
CDISC Description: A measurement of the total bilirubin in a biological specimen.
NCI preferred term: Total Bilirubin Measurement",NUMERIC FINDING,FINDINGS,LBTESTCD,BILI,LBTEST,Bilirubin,umol/L,CONCENTRATION,584.66,umol/L,mg/dL,,1975-2|14631-6,,Laboratory Assessments,Biochemistry
BILIRUBIN_URINE,URINALYSIS,,BILIU2,LB,Bilirubin,Bilirubin Urine,URINE,,,,"CDISC:A measurement of the total bilirubin in a biological specimen.
CDISC synonym: Bilirubin
CDISC preferred term: BILI
CDISC code: C38037",CATEGORIC FINDING,FINDINGS,LBTESTCD,BILI,LBTEST,Bilirubin,,,,,,,,STICK,Laboratory Assessments,Urinalysis
BLOOD_SAMPLES_COLLECTED,COLLECTION OF SAMPLES,,BLOODCLB,LB,Have all blood samples been taken,Have All Blood Samples Been Taken,BLOOD,,,,"<CodeLists>
<CodeList Value=""LBTEST"" CodeSubmValue=""Have all samples been taken"" SpecimenType=""BLOOD""></CodeList>
<CodeList Value=""LBTESTCD"" CodeSubmValue=""LBALL""></CodeList>
</CodeLists>
Have all blood samples been taken?",CATEGORIC FINDING,FINDINGS,LBTESTCD,LBALL,LBTEST,Have All Samples Been Taken,,,,,,,,YESNO,Laboratory Assessments,Collection of Samples
BLOOD_UREA_NITROGEN,AE REQUIRING ADDITIONAL DATA,,UREANB,LB,Urea Nitrogen,Urea Nitrogen,BLOOD,,,,"CDISC: C125949
A measurement of the urea nitrogen in a biological specimen.

For Lab codes in AE Requiring Additional Data, there should be no SCATS",NUMERIC FINDING,FINDINGS,LBTESTCD,UREAN,LBTEST,Urea Nitrogen,mg/dL,CONCENTRATION,28.0,,,,,,AE Requiring Additional Data,Laboratory Assessment
BODY_TEMPERATURE,VITAL SIGNS,,TEMP,VS,Temperature,Body Temperature,,,AXILLARY|RECTAL|SKIN|ORAL CAVITY|EAR,SUPINE,"CDISC code: C25206
CDISC Submission Value: TEMP
CDISC: The property of a body or region of space that determines whether or not there will be a net flow of heat into it or out of it from a neighboring body or region and in which direction (if any) the heat will flow, perceptible by living organism as a somatic sensation of cold or heat. It is a measure of the average translational kinetic energy associated with the disordered microscopic motion of atoms and molecules. Temperature is measured in one of the three standard temperature scales: Celsius, Kelvin, and Fahrenheit. (NCI)",NUMERIC FINDING,FINDINGS,VSTESTCD,TEMP,VSTEST,Temperature,C,TEMPERATURE,,K,,,,,Vital Signs,Vital Signs
BODY_WEIGHT,BODY MEASUREMENT,,WEIGHT,VS,Weight,Body Weight,,,,,"CDISC code: C25208
CDISC submission value: WEIGHT
CDISC synonym(s): Weight
CDISC Description: The vertical force exerted by a mass as a result of gravity. (NCI)
NCI preferred term: Weight",NUMERIC FINDING,FINDINGS,VSTESTCD,WEIGHT,VSTEST,Weight,kg,WEIGHT,,kg,lb,N|Y,,,Body Measurements,Body Measurements
BP_DIASTOLIC,VITAL SIGNS,,DIABP,VS,Diastolic Blood Pressure,Diastolic Blood Pressure,,LEFT|RIGHT,ARM,SUPINE|SITTING,"CDISC code: C25299
CDISC submission value: DIABP
CDISC synonym(s): Diastolic Blood Pressure
CDISC Description: The blood pressure after the contraction of the heart while the chambers of the heart refill with blood. (NCI)
NCI preferred term: Diastolic Blood Pressure",NUMERIC FINDING,FINDINGS,VSTESTCD,DIABP,VSTEST,Diastolic Blood Pressure,mmHg,PRESSURE,,mmHg,,,,,Vital Signs,Vital Signs
BP_SYSTOLIC,VITAL SIGNS,,SYSBP,VS,Systolic Blood Pressure,Systolic Blood Pressure,,LEFT|RIGHT,ARM,SUPINE|SITTING,"CDISC code: C25298
CDISC submission value: SYSBP
CDISC synonym(s): Systolic Blood Pressure
CDISC Description: The blood pressure during the contraction of the left ventricle of the heart.
NCI preferred term: Systolic Blood Pressure",NUMERIC FINDING,FINDINGS,VSTESTCD,SYSBP,VSTEST,Systolic Blood Pressure,mmHg,PRESSURE,,mmHg,,,,,Vital Signs,Vital Signs
CAUSE OF DEATH,EVENT ADJUDICATION,,CAUSEDEA,ZA,Cause of Death,Cause of Death,,,,,Sponsor defined: Used for Event Adjudication,CATEGORIC FINDING,FINDINGS,ZATESTCD,CAUSEDEA,ZATEST,Cause of Death,,,,,,,,DEATH_REASON,Event Adjudication,Death
CGM_SENSOR_VALUE,CGM,,GLUC02,LB,Glucose,CGM - Sensor Value,,,,,"Continous Glucose Monitoring - Sensor value
CDISC Submission value: GLUC
CDISC synonym: Glucose
CDISC code: C105585
CDISC definition: A measurement of the glucose in a biological specimen.",NUMERIC FINDING,FINDINGS,LBTESTCD,GLUC,LBTEST,Glucose,mmol/L,CONCENTRATION,180.2,,mg/dL,,,,Device,CGM
CHARACTERISTIC_IMAGING_FINDINGS,EVENT ADJUDICATION,,IMAGFIND,ZA,Imaging Findings Characteristic of Pancreatitis,Imaging Findings Characteristic of Pancreatitis,,,,,Imaging findings characteristic of pancreatitis,CATEGORIC FINDING,FINDINGS,ZATESTCD,IMAGFIND,ZATEST,Imaging Characteristic of Pancreatitis,,,,,,,,YESNO,Event Adjudication,Acute Pancreatitis
CHILDBEARING_POTENTIAL,,,CHILDPOT,RP,Childbearing Potential,Is the Subject of Childbearing Potential,,,,,"SDTM Terminology 2017-06-30
Code:C106508
CDISC Code Value: CHILDPOT
CDISC Value Label: Childbearing Potential
CDISC synonym(s): Childbearing Potential
CDISC definition: An indicator as to whether the female subject has the potential to become pregnant. (NCI)
NCI preferred term: Childbearing Potential",CATEGORIC FINDING,FINDINGS,RPTESTCD,CHILDPOT,RPTEST,Childbearing Potential,,,,,,,,YESNO,Childbearing Potential,Childbearing Potential
CLASSIFICATION OF MYOCARDIAL INFARCTION,EVENT ADJUDICATION,,CLASSMYF,ZA,Classification of Myocardial Infarction,Classification of Myocardial Infarction,,,,,Sponsor defined: Used for Event Adjudication,CATEGORIC FINDING,FINDINGS,ZATESTCD,CLASSMYF,ZATEST,Classification of Myocardial Infarction,,,,,,,,MI_CLASSIFICATI_OF_ADJ_EVENT,Event Adjudication,Acute Coronary Syndrome
CREATININE_CLEARANCE,AE REQUIRING ADDITIONAL DATA,,CREATCLR,LB,Creatinine Clearance,Creatinine Clearance,,,,,"CDISC: C25747
A measurement of the volume of serum or plasma that would be cleared of creatinine by excretion of urine for a specified unit of time (e.g. one minute).",NUMERIC FINDING,FINDINGS,LBTESTCD,CREATCLR,LBTEST,Creatinine Clearance,mL/min,FLOW,,,,,,,AE Requiring Additional Data,Laboratory Assessment
CREATININE_SERUM,BIOCHEMISTRY,,CREATS,LB,Creatinine,"Creatinine, Biochemistry",SERUM,,,,"Creatinine in serum
CDISC code: C64547
CDISC submission value: CREAT
CDISC synonym(s): Creatinine
CDISC Description: A measurement of the creatinine in a biological specimen.
NCI preferred term: Creatinine Measurement",NUMERIC FINDING,FINDINGS,LBTESTCD,CREAT,LBTEST,Creatinine,umol/L,CONCENTRATION,113.118,umol/L,mg/dL,,2160-0|14682-9,,Laboratory Assessments,Biochemistry
CRP,AE REQUIRING ADDITIONAL DATA,,CRP,LB,C Reactive Protein,C-Reactive Protein,,,,,"A measurement of the C reactive protein in a biological specimen.
NCI preferred term: C-Reactive Protein Measurement",NUMERIC FINDING,FINDINGS,LBTESTCD,CRP,LBTEST,C Reactive Protein,mg/L,CONCENTRATION,105000.0,mg/L,,,,,AE Requiring Additional Data,Laboratory Assessment
CRP_HS_SERUM,BIOCHEMISTRY,,CRPS,LB,C Reactive Protein,High Sensitive C-Reactive Protein,SERUM,,,,"CDISC code: C64548
CDISC submission value: CRP
CDISC synonym(s): C Reactive Protein
CDISC Description: A measurement of the C reactive protein in a biological specimen.
NCI preferred term: C-Reactive Protein Measurement",NUMERIC FINDING,FINDINGS,LBTESTCD,CRP,LBTEST,C Reactive Protein,mg/L,CONCENTRATION,105000.0,mg/L,,,30522-7,,Laboratory Assessments,Biochemistry
CYSTATIN_C,AE REQUIRING ADDITIONAL DATA,,CYSTATC,LB,Cystatin C,Cystatin C,,,,,A measurement of the cystatin C in a biological specimen.,NUMERIC FINDING,FINDINGS,LBTESTCD,CYSTATC,LBTEST,Cystatin C,ug/L,CONCENTRATION,13343.0,,,,,,AE Requiring Additional Data,Laboratory Assessment
C_PEPTIDE_SERUM,GLUCOSE METABOLISM,,CPEPTES,LB,C-Peptide,C-Peptide,SERUM,,,,"CDISC code: C74736
CDISC submission value: CPEPTIDE
CDISC synonym(s): C-peptide
CDISC Description: A measurement of the C (connecting) peptide of insulin in a biological specimen.
NCI preferred term: C-peptide Measurement
<molecularweight checked_with_Maaloev=""Y"" molecular_formula=C129H211N35O48></molecularweight>",NUMERIC FINDING,FINDINGS,LBTESTCD,CPEPTIDE,LBTEST,C-peptide,nmol/L,CONCENTRATION,3020.0,,ng/mL,,,,Laboratory Assessments,Glucose Metabolism
C_REACT_PROT_PLASMA,BIOCHEMISTRY,,CRPP,LB,C Reactive Protein,C-Reactive Protein Plasma,PLASMA,,,,"CDISC: A measurement of the C reactive protein in a biological specimen.
CDIS synonym: C Reactive Protein
CDISC submission value: CRP
CDISC: preferred term: CRP 
Code: C64548",NUMERIC FINDING,FINDINGS,LBTESTCD,CRP,LBTEST,C Reactive Protein,mg/L,CONCENTRATION,,mg/L,,,,,Laboratory Assessments,Biochemistry
DATE_OF_BIRTH,DEMOGRAPHY,,BRTHDTC,DM,Date of Birth,Date of Birth,,,,,"Date of birth of the subject.
variable name: BRTHDTC in subj. demographics domain",DISPOSITION,EVENTS,NO_LINKAGE_NEEDED,No Linkage Needed,NO_LINKAGE_NEEDED,No Linkage Needed,,,,,,,,,Informed Consent and Demography,Informed Consent and Demography
DATE_OF_BIRTH,DEMOGRAPHY,,BRTHDTC,DM,Date of Birth,Date of Birth,,,,,"Date of birth of the subject.
variable name: BRTHDTC in subj. demographics domain",DISPOSITION,EVENTS,NO_LINKAGE_NEEDED,No Linkage Needed,NO_LINKAGE_NEEDED,No Linkage Needed,,,,,,,,,Demography,Demography
DEATH_LOCATION,EVENT ADJUDICATION,,DEATHLOC,ZA,Location of Death Occurrence,Location of Death Occurrence,,,,,"Location of death occurrence:
Home
Hospital
Other
Unknown",CATEGORIC FINDING,FINDINGS,ZATESTCD,DEATHLOC,ZATEST,Death Location,,,,,,,,LOCATION_OF_DEATH,Event Adjudication,Death
EGFR_CKD_EPI_SERUM,BIOCHEMISTRY,,GFRES2,LB,"Glomerular Filtration Rate, Estimated",eGFR Using CKD-EPI Formula,SERUM,,,,"This code can both be used as derived and as non-derived. Please, see definition for both below:
The CKD-EPI equation, is (x indicates multiplication):
GFR = 141 x min(Scr/kappa,1)alpha x max(Scr/kappa, 1) -1.209 x 0.993 Age x 1.018 [if female] X 1.159 [if Black or Afro-American], where Scr is serum creatinine (mg/dL), kappa is 0.7 for females and 0.9 for males, alpha is -0.329 for females and -0.411 for males, min indicates the minimum of Scr/kappa or 1, and max indicates the maximum of Scr/kappa or 1.

Code:C110935
CDISC Code Value: GFRE
CDISC Value Label: Glomerular Filtration Rate, Estimated
CDISC synonym(s): Glomerular Filtration Rate, Estimated
CDISC definition:  A kidney function test that estimates the fluid volume that is filtered from the kidney glomeruli to the Bowman's capsule per unit of time.
NCI preferred term: Estimated Glomerular Filtration Rate",NUMERIC FINDING,FINDINGS,LBTESTCD,GFRE,LBTEST,"Glomerular Filtration Rate, Estimated",mL/min/1.73m2,VOLUMETRIC FLOW RATE,,mL/s/m2,,,62238-1,,Laboratory Assessments,Biochemistry
ELEVATED_BLOOD_LEVELS_OF_PANCREATIC_ENZYMES,EVENT ADJUDICATION,,LEVELENZ,ZA,"Elevated Blood Levels of Pancreatic Enzymes (Lipase, Amylase) >=3xUNL","Elevated Blood Levels of Pancreatic Enzymes (Lipase, Amylase) >=3xUNL",,,,,"Elevated blood levels of pancreatic enzymes (lipase, amylase) >/= 3xUNL",CATEGORIC FINDING,FINDINGS,ZATESTCD,LEVELENZ,ZATEST,Elevated Pancreatic Enzymes,,,,,,,,YESNO,Event Adjudication,Acute Pancreatitis
ELIGIBILITY CRITERIA MET,PROTOCOL MILESTONE,,ELICRIMT,DS,Eligibility Criteria Met,Subject Eligible to Continue the Trial,,,,,"Having evaluated all the criteria, the subject is eligible to continue the trial",DISPOSITION,EVENTS,PROTMLST,ELIGIBILITY CRITERIA MET,PROTMLST,ELIGIBILITY CRITERIA MET,,,,,,,,,Eligibility Criteria,Eligibility Criteria
END_OF_TRIAL,DISPOSITION EVENT,,EOT,DS,End of Study,End of Study,,,,,End of Study,DISPOSITION,EVENTS,NO_LINKAGE_NEEDED,No Linkage Needed,NO_LINKAGE_NEEDED,No Linkage Needed,,,,,,,,,End of Study,End of Study
EOSINOPHIL_ABS_BLOOD,HAEMATOLOGY,DIFFERENTIAL COUNT,EOSB,LB,Eosinophils,Eosinophils Blood,BLOOD,,,,"Eosinophils count in blood
CDISC code: C64550
CDISC submission value: EOS
CDISC synonym(s): Eosinophils
CDISC Description: A measurement of the eosinophils in a biological specimen.
NCI preferred term: Eosinophil Count",NUMERIC FINDING,FINDINGS,LBTESTCD,EOS,LBTEST,Eosinophils,10^9/L,CELL COUNT,,10^9/L,,,711-2,,Laboratory Assessments,Haematology Differential Count
EOSINOPHIL_ABS_BLOOD,HAEMATOLOGY,DIFFERENTIAL COUNT,EOSB,LB,Eosinophils,Eosinophils Blood,BLOOD,,,,"Eosinophils count in blood
CDISC code: C64550
CDISC submission value: EOS
CDISC synonym(s): Eosinophils
CDISC Description: A measurement of the eosinophils in a biological specimen.
NCI preferred term: Eosinophil Count",NUMERIC FINDING,FINDINGS,LBTESTCD,EOS,LBTEST,Eosinophils,10^9/L,CELL COUNT,,10^9/L,,,711-2,,Laboratory Assessments,Haematology
EOS_CELL_COUNT,AE REQUIRING ADDITIONAL DATA,,EOS2,LB,Eosinophils,Eosinophils Cell Count (AE),,,,,Eosinophils cell count,NUMERIC FINDING,FINDINGS,LBTESTCD,EOS,LBTEST,Eosinophils,10^9/L,CELL COUNT,,,,,,,AE Requiring Additional Data,Laboratory Assessment
ERCS_BLOOD,HAEMATOLOGY,,RBCB,LB,Erythrocytes,Erythrocytes,BLOOD|SERUM,,,,"CDISC code: C51946
CDISC submission value: RBC
CDISC synonym(s): Erythrocytes; Red Blood Cells
CDISC Description: A measurement of the total erythrocytes in a biological specimen.
NCI preferred term: Erythrocyte Count",NUMERIC FINDING,FINDINGS,LBTESTCD,RBC,LBTEST,Erythrocytes,10^12/L,CELL COUNT,,10^12/L,10^6/uL,,789-8,,Laboratory Assessments,Haematology
ESTIMATED_GFR_EGFR,AE REQUIRING ADDITIONAL DATA,,GFRE2,LB,"Glomerular Filtration Rate, Estimated",Estimated GFR,,,,,A kidney function test that estimates the fluid volume that is filtered from the kidney glomeruli to the Bowman's capsule per unit of time.,NUMERIC FINDING,FINDINGS,LBTESTCD,GFRE,LBTEST,"Glomerular Filtration Rate, Estimated",mL/min,FLOW,,,,,,,AE Requiring Additional Data,Laboratory Assessment
ETHNIC,DEMOGRAPHY,,ETHNIC,DM,Ethnicity,Ethnicity,,,,,CDISC: Ethnicity of subject.,CATEGORIC FINDING,FINDINGS,NO_LINKAGE_NEEDED,No Linkage Needed,NO_LINKAGE_NEEDED,No Linkage Needed,,,,,,,,ETHNIC_DETAIL,Informed Consent and Demography,Informed Consent and Demography
ETHNIC,DEMOGRAPHY,,ETHNIC,DM,Ethnicity,Ethnicity,,,,,CDISC: Ethnicity of subject.,CATEGORIC FINDING,FINDINGS,NO_LINKAGE_NEEDED,No Linkage Needed,NO_LINKAGE_NEEDED,No Linkage Needed,,,,,,,,ETHNIC_DETAIL,Demography,Demography
EVALUATED EVENT ONSET DATE,EVENT ADJUDICATION,,EVALDATE,ZA,Evaluated Event Onset Date,Evaluated Event Onset Date,,,,,Sponsor defined: Used for Event Adjudication,TEXTUAL FINDING,FINDINGS,ZATESTCD,EVALDATE,ZATEST,Evaluated Event Onset Date,,,,,,,,,Event Adjudication,General
EVENT_CONFIRMATION,EVENT ADJUDICATION,,EVENCONF,ZA,Event Confirmation,Event Confirmation,,,,,"Confirmation of event: 
Full documentation for meeting criteria available in source documents
or
Full documentation for meeting criteria NOT available in source documents, medical judgment applied",CATEGORIC FINDING,FINDINGS,ZATESTCD,EVENCONF,ZATEST,Event Confirmation,,,,,,,,CONFIRM_OF_THE_ADJUDIC_EVENT,Event Adjudication,General
FIRST_TRIAL_PROD_DATE,PROTOCOL MILESTONE,,FSTTRPDT,DS,First Date on Trial Product,First Date on Trial Product,,,,,First date on trial product,DISPOSITION,EVENTS,PROTMLST,FIRST DATE ON TRIAL PRODUCT,PROTMLST,FIRST DATE ON TRIAL PRODUCT,,,,,,,,,End of Study,End of Study
FPG_PLASMA,GLUCOSE METABOLISM,,FPG,LB,Glucose,Fasting Plasma Glucose,PLASMA,,,,"CDISC code: C105585
CDISC submission value: GLUC
CDISC synonym(s): Glucose
CDISC Description: A measurement of the glucose in a biological specimen.
NCI preferred term: Glucose Measurement",NUMERIC FINDING,FINDINGS,LBTESTCD,GLUC,LBTEST,Glucose,mmol/L,CONCENTRATION,180.2,mmol/L,mg/dL,,14771-0|32318-8,,Laboratory Assessments,Glucose Metabolism
FSG_SERUM,GLUCOSE METABOLISM,,FSG,LB,Glucose,Fasting Serum Glucose,SERUM,,,,"Molecular Weight (MW): Copied from GLUCOSE_SERUM
Fasting Serum Glucose.
CDISC code: GLUC (for generic code glucose).",NUMERIC FINDING,FINDINGS,LBTESTCD,GLUC,LBTEST,Glucose,mmol/L,CONCENTRATION,180.2,,mg/dL,,,,Laboratory Assessments,Glucose Metabolism
FSI_SERUM,GLUCOSE METABOLISM,,FSI,LB,Insulin,Insulin Serum-Fasting,SERUM,,,,Fasting insulin in serum.,NUMERIC FINDING,FINDINGS,LBTESTCD,INSULIN,LBTEST,Insulin,pmol/L,CONCENTRATION,5808.0,pmol/L,uIU/mL,,20448-7,,Laboratory Assessments,Glucose Metabolism
GGT,AE REQUIRING ADDITIONAL DATA,,GGT,LB,Gamma Glutamyl Transferase,Gamma Glutamyl Transferase,,,,,"CDISC code:C64847
CDISC submission value: GGT
CDISC synonym(s): Gamma Glutamyl Transferase
CDISC definition: A measurement of the gamma glutamyl transferase in a biological specimen.
NCI preferred term: Gamma Glutamyl Transpeptidase Measurement",NUMERIC FINDING,FINDINGS,LBTESTCD,GGT,LBTEST,Gamma Glutamyl Transferase,mg/L,CONCENTRATION,,,,,,,AE Requiring Additional Data,Laboratory Assessment
GGT_SERUM,BIOCHEMISTRY,,GGTS,LB,Gamma Glutamyl Transferase,GGT,SERUM,,,,"CDISC code:C64847
CDISC submission value: GGT
CDISC synonym(s): Gamma Glutamyl Transferase
CDISC definition: A measurement of the gamma glutamyl transferase in a biological specimen.
NCI preferred term: Gamma Glutamyl Transpeptidase Measurement",NUMERIC FINDING,FINDINGS,LBTESTCD,GGT,LBTEST,Gamma Glutamyl Transferase,U/L,U_IU Concentration,,ukat/L,,,2324-2,,Laboratory Assessments,Biochemistry
GLUCAGON_PLASMA,GLUCOSE METABOLISM,,GLUCANP,LB,Glucagon,Plasma Glucagon,PLASMA,,,,"CDISC code: C74859
CDISC submission value: GLUCAGON
CDISC synonym(s): Glucagon
CDISC Description: A measurement of the glucagon hormone in a biological specimen.
NCI preferred term: Glucagon Measurement",NUMERIC FINDING,FINDINGS,LBTESTCD,GLUCAGON,LBTEST,Glucagon,pg/mL,CONCENTRATION,3483.0,,pmol/L,,,,Laboratory Assessments,Glucose Metabolism
GLUCAGON_SERUM,GLUCOSE METABOLISM,,GLUCAGNS,LB,Glucagon,Serum Glucagon,SERUM,,,,"CDISC code: C74859
CDISC submission value: GLUCAGON
CDISC synonym(s): Glucagon
CDISC Description: A measurement of the glucagon hormone in a biological specimen.
NCI preferred term: Glucagon Measurement",NUMERIC FINDING,FINDINGS,LBTESTCD,GLUCAGON,LBTEST,Glucagon,pg/mL,CONCENTRATION,3483.0,,,,,,Laboratory Assessments,Glucose Metabolism
GLUCOSE,AE REQUIRING ADDITIONAL DATA,,GLUC05,LB,Glucose,Glucose,,,,,A measurement of the glucose in a biological specimen.,NUMERIC FINDING,FINDINGS,LBTESTCD,GLUC,LBTEST,Glucose,mmol/L,CONCENTRATION,180.2,mmol/L,mg/dL,,,,AE Requiring Additional Data,Laboratory Assessment
GLUCOSE_BLOOD,GLUCOSE METABOLISM,,GLUCB,LB,Glucose,Blood Glucose,BLOOD,,,,"CDISC Submission value: GLUC
CDISC synonym: Glucose
CDISC code: C41376
CDISC definition: A measurement of the glucose in a biological specimen.",NUMERIC FINDING,FINDINGS,LBTESTCD,GLUC,LBTEST,Glucose,mmol/L,CONCENTRATION,180.2,,mg/dL,,,,Laboratory Assessments,Glucose Metabolism
GLUCOSE_C_URINE,URINALYSIS,,GLUCU,LB,Glucose,Glucose Urine,URINE,,,,"CDISC code: C105585
CDISC submission value: GLUC
CDISC synonym(s): Glucose
CDISC Description: A measurement of the glucose in a biological specimen.
NCI preferred term: Glucose Measurement",CATEGORIC FINDING,FINDINGS,LBTESTCD,GLUC,LBTEST,Glucose,,,,,,,,STICK,Laboratory Assessments,Urinalysis
GLUCOSE_PLASMA,GLUCOSE METABOLISM,,GLUCP,LB,Glucose,"Glucose, Plasma, Glucose Metabolism",PLASMA|SERUM,,,,"CDISC code: C105585
CDISC submission value: GLUC
CDISC synonym(s): Glucose
CDISC Description: A measurement of the glucose in a biological specimen.
NCI preferred term: Glucose Measurement",NUMERIC FINDING,FINDINGS,LBTESTCD,GLUC,LBTEST,Glucose,mmol/L,CONCENTRATION,180.2,mmol/L,mg/dL,,,,Laboratory Assessments,Glucose Metabolism
GLUCOSE_SERUM,GLUCOSE METABOLISM,,GLUCS,LB,Glucose,"Glucose, Serum",SERUM,,,,"CDISC submission value: GLUC
CDISC synonym: Glucose
CDISC Code: C65047
CDISC: A measurement of the glucose in a biological specimen.",NUMERIC FINDING,FINDINGS,LBTESTCD,GLUC,LBTEST,Glucose,mmol/L,CONCENTRATION,180.2,,mg/dL,,,,Laboratory Assessments,Glucose Metabolism
GLUC_UR,URINALYSIS,,GLUCU2,LB,Glucose,Glucose Dipstick,URINE,,,,Sponsordefined: The investigators evaluation of a measurement of the glucose in urine,CATEGORIC FINDING,FINDINGS,LBTESTCD,GLUC,LBTEST,Glucose,,,,,,,59156-0,STICK,Laboratory Assessments,Urine Dipstick
GLUC_UR,URINALYSIS,,GLUCU2,LB,Glucose,Glucose Dipstick,URINE,,,,Sponsordefined: The investigators evaluation of a measurement of the glucose in urine,CATEGORIC FINDING,FINDINGS,LBTESTCD,GLUC,LBTEST,Glucose,,,,,,,59156-0,STICK,Laboratory Assessments,Urinalysis
GLUC_UR,URINALYSIS,,GLUCU2,LB,Glucose,Glucose Dipstick,URINE,,,,Sponsordefined: The investigators evaluation of a measurement of the glucose in urine,CATEGORIC FINDING,FINDINGS,LBTESTCD,GLUC,LBTEST,Glucose,,,,,,,59156-0,STICK,Laboratory Assessments,Urinalysis - Urine Dipstick
HBA1C_BLOOD,GLUCOSE METABOLISM,,HBA1CB,LB,HbA1c,HbA1c,BLOOD|SERUM,,,,"HbA1c in blood
CDISC code: C64849
CDISC submission value: HBA1C
CDISC synonym(s): Hemoglobin A1C
CDISC Description: A measurement of the glycosylated hemoglobin in a biological specimen.
NCI preferred term: Glycosylated Hemoglobin Measurement",NUMERIC FINDING,FINDINGS,LBTESTCD,HBA1C,LBTEST,Hemoglobin A1C,%,PERCENTAGE,,,mmol/mol,,17856-6|59261-8,,Laboratory Assessments,Glucose Metabolism
HEART_FAILURE_CLASSIFICATION,EVENT ADJUDICATION,,HTFAILCL,ZA,Heart Failure Classification,Heart Failure Classification,,,,,"Heart failure (HF) is routinely classified according to left ventricular ejection fraction (LVEF) as HF with reduced LVEF (HFrEF) or HF with preserved LVEF (HFpEF).
Ponikowski P et al. Eur Heart J 2016; 37:2129-2200 is the one which defines HFrEF, HFmrEF and HFpEF. https://onlinelibrary.wiley.com/doi/full/10.1002/ejhf.592
CDISC Definition: The percent or fraction of the left ventricular end diastolic volume ejected during systole that can be measured by visual estimation or calculation.",CATEGORIC FINDING,FINDINGS,ZATESTCD,HTFAILCL,ZATEST,Heart Failure Classification,,,,,,,,HEART_FAILURE_CLASS,Event Adjudication,Heart Failure
HEIGHT,BODY MEASUREMENT,,HEIGHT,VS,Height,Height,,,,,"CDISC code: C25347
CDISC submission value: HEIGHT
CDISC synonym(s): Height
CDISC Description: The vertical measurement or distance from the base to the top of an object; the vertical dimension of extension. (NCI)
NCI preferred term: Height",NUMERIC FINDING,FINDINGS,VSTESTCD,HEIGHT,VSTEST,Height,m,LENGTH,,m,in,Y|N,,,Body Measurements,Body Measurements
HIP_CIRCUMFERENCE,BODY MEASUREMENT,,HIPCIR,VS,Hip Circumference,Hip Circumference,,,,,"CDISC code: C100947
CDISC submission value: HIPCIR
CDISC synonym(s): Hip Circumference
CDISC definition:The distance around an individual's pelvic area or hips.
NCI preferred term: Hip Circumference",NUMERIC FINDING,FINDINGS,VSTESTCD,HIPCIR,VSTEST,Hip Circumference,cm,LENGTH,,,,Y|N,,,Body Measurements,Body Measurements
HOSPITALIZATION DATE,IN-PATIENT/PROLONGED HOSPITALISATION,,HOSPDT,HO,Hospitalisation,Hospitalisation,,,,,Date of admission to hospital.,PERIODIC,EVENTS,NO_LINKAGE_NEEDED,No Linkage Needed,NO_LINKAGE_NEEDED,No Linkage Needed,,,,,,,,,Adverse Event,Adverse Event
HYPO_FEEL_BETTER,EVENT ADJUDICATION,,FEELBETT,ZA,Did the Subject Feel Better After the Treatment,Did the Subject Feel Better After the Treatment,,,,,Event adjudication: Subject feel better after treatment,CATEGORIC FINDING,FINDINGS,ZATESTCD,FEELBETT,ZATEST,Subject Feel Better After the Treatment,,,,,,,,YESNO,Event Adjudication,Hypoglycaemic Episode
INFORMED_CONSENT_DATE,PROTOCOL MILESTONE,,INFCONDT,DS,Informed Consent Obtained,Informed Consent Obtained Date,,,,,Date of informed consent obtained,DISPOSITION,EVENTS,PROTMLST,INFORMED CONSENT OBTAINED,PROTMLST,INFORMED CONSENT OBTAINED,,,,,,,,,Informed Consent and Demography,Informed Consent and Demography
INFORMED_CONSENT_DATE,PROTOCOL MILESTONE,,INFCONDT,DS,Informed Consent Obtained,Informed Consent Obtained Date,,,,,Date of informed consent obtained,DISPOSITION,EVENTS,PROTMLST,INFORMED CONSENT OBTAINED,PROTMLST,INFORMED CONSENT OBTAINED,,,,,,,,,Informed Consent,Informed Consent
INR,AE REQUIRING ADDITIONAL DATA,,INR,LB,Prothrombin Intl. Normalized Ratio,International Normalized Ratio,,,,,"Sponsor defined:
International Normalized Ratio",NUMERIC FINDING,FINDINGS,LBTESTCD,INR,LBTEST,Prothrombin Intl. Normalized Ratio,ratio,PERCENTAGE,,%,,,,,AE Requiring Additional Data,Laboratory Assessment
INR_PLASMA,COAGULATION PARAMETER,,INRP,LB,Prothrombin Intl. Normalized Ratio,INR,PLASMA,,,,"CDISC code:C64805
CDISC Submission value: INR 
CDISC synonum(s): Prothrombin Intl. Normalized Ratio
CDISC Description: A ratio that represents the prothrombin time for a plasma specimen, divided by the result for a control plasma specimen, further standardized for the International Sensitivity Index of the tissue factor(thromboplastin) used in the test.
CDISC Synonym(s): Prothrombin Intl. Normalized Ratio
NCI preferred term: International Normalized Ratio of Prothrombin Time",NUMERIC FINDING,FINDINGS,LBTESTCD,INR,LBTEST,Prothrombin Intl. Normalized Ratio,ratio,PERCENTAGE,,%,,,6301-6,,Laboratory Assessments,Coagulation Parameters
INSULIN_H_SERUM,GLUCOSE METABOLISM,,INSULNS,LB,Insulin,Human Insulin,SERUM,,,,"CDISC code: C74788
CDISC submission value: INSULIN
CDISC synonym(s): Insulin
CDISC Description: A measurement of the insulin in a biological specimen.
NCI preferred term: Insulin Measurement",NUMERIC FINDING,FINDINGS,LBTESTCD,INSULIN,LBTEST,Insulin,pmol/L,CONCENTRATION,5808.0,,uIU/mL,,,,Laboratory Assessments,Glucose Metabolism
INSULIN_SERUM,GLUCOSE METABOLISM,,INSULNS2,LB,Insulin,Insulin Serum,SERUM,,,,"Molecular Weight (MW): Confirmed by CHHE, Maaloev, 06-06-2013
CDISC code: C74788
CDISC submission value: INSULIN
CDISC synonym(s): Insulin
CDISC Description: A measurement of the insulin in a biological specimen.
NCI preferred term: Insulin Measurement",NUMERIC FINDING,FINDINGS,LBTESTCD,INSULIN,LBTEST,Insulin,pmol/L,CONCENTRATION,5808.0,,uIU/mL,,20448-7,,Laboratory Assessments,Glucose Metabolism
LAST_TRIAL_PROD_DATE,PROTOCOL MILESTONE,,LDRGDT,DS,Last Date on Trial Product,Last Date on Trial Product,,,,,Last date on trial product,DISPOSITION,EVENTS,PROTMLST,LAST DATE ON TRIAL PRODUCT,PROTMLST,LAST DATE ON TRIAL PRODUCT,,,,,,,,,End of Study,End of Study
LAST_TRIAL_PROD_DATE,PROTOCOL MILESTONE,,LDRGDT,DS,Last Date on Trial Product,Last Date on Trial Product,,,,,Last date on trial product,DISPOSITION,EVENTS,PROTMLST,LAST DATE ON TRIAL PRODUCT,PROTMLST,LAST DATE ON TRIAL PRODUCT,,,,,,,,,End of IMP Treatment,End of IMP Treatment
LEGAL OR AUTHORISED REPRESENTATIVE,PROTOCOL MILESTONE,,LEGALCON,DS,Informed Consent Obtained,Legal or Authorised Representative,,,,,Informed Consent obtained by legal or authorised representative,DISPOSITION,EVENTS,PROTMLST,INFORMED CONSENT OBTAINED,PROTMLST,INFORMED CONSENT OBTAINED,,,,,,,,,Informed Consent and Demography,Informed Consent and Demography
LEGAL OR AUTHORISED REPRESENTATIVE,PROTOCOL MILESTONE,,LEGALCON,DS,Informed Consent Obtained,Legal or Authorised Representative,,,,,Informed Consent obtained by legal or authorised representative,DISPOSITION,EVENTS,PROTMLST,INFORMED CONSENT OBTAINED,PROTMLST,INFORMED CONSENT OBTAINED,,,,,,,,,Informed Consent,Informed Consent
LEGAL OR AUTHORISED REPRESENTATIVE,PROTOCOL MILESTONE,,LEGALCON,DS,Informed Consent Obtained,Legal or Authorised Representative,,,,,Informed Consent obtained by legal or authorised representative,DISPOSITION,EVENTS,PROTMLST,INFORMED CONSENT OBTAINED,PROTMLST,INFORMED CONSENT OBTAINED,,,,,,,,,Future Research Biosample Consent,Future Research Biosample Consent
LIPASET,AE REQUIRING ADDITIONAL DATA,,LIPASET,LB,Lipase,"Lipase, AE Requiring Additional Data",,,,,A measurement of the total lipase in a biological specimen.,NUMERIC FINDING,FINDINGS,LBTESTCD,LIPASET,LBTEST,Lipase,U/L,U_IU Concentration,,,,,,,AE Requiring Additional Data,Laboratory Assessment
LIPASE_SERUM,BIOCHEMISTRY,,LIPASETS,LB,Lipase,"Lipase, Biochemistry",SERUM,,,,"New version:C117748
OLD version
CDISC code: C64807
CDISC submission value: LIPASE
CDISC synonym(s): Triacylglycerol Lipase
CDISC Description: A measurement of the pancreatic lipase in a biological specimen.
NCI preferred term: Triacylglycerol Lipase Measurement",NUMERIC FINDING,FINDINGS,LBTESTCD,LIPASET,LBTEST,Lipase,U/L,U_IU Concentration,,ukat/L,,,2572-6|3040-3,,Laboratory Assessments,Biochemistry
MEASURED_GFR_MGFR,AE REQUIRING ADDITIONAL DATA,,GFR,LB,Glomerular Filtration Rate,Glomerular Filtration Rate,,,,,"CDISC: C90505
A kidney function test that measures the fluid volume that is filtered from the kidney glomeruli to the Bowman's capsule per unit of time.

For Lab codes in AE Requiring Additional Data, there should be no SCATS",NUMERIC FINDING,FINDINGS,LBTESTCD,GFR,LBTEST,Glomerular Filtration Rate,mL/min,FLOW,,,,,,,AE Requiring Additional Data,Laboratory Assessment
MEDICAL_HISTORY,MEDICAL HISTORY,,MEDHIST,MH,Medical History/Concomitant Illness,Medical History/Concomitant Illness,,,,,Medical history/Concomitant illness,MEDICAL HISTORY,EVENTS,NO_LINKAGE_NEEDED,No Linkage Needed,NO_LINKAGE_NEEDED,No Linkage Needed,,,,,,,,,Medical History/Concomitant Illness,Medical History/Concomitant Illness
METHOD OF CORONARY REVASCULARISATION,EVENT ADJUDICATION,,METHOCRV,ZA,Method of Coronary Revascularisation,Method of Coronary Revascularisation,,,,,Sponsor defined: Used for Event Adjudication,CATEGORIC FINDING,FINDINGS,ZATESTCD,METHOCRV,ZATEST,Method of Coronary Revascularisation,,,,,,,,CORONARY_REVASC_PROCEDURE,Event Adjudication,Coronary Revascularisation
NITRITE,AE REQUIRING ADDITIONAL DATA,,NITRITE,LB,Nitrite,"Nitrite, AE Requiring Additional Data",,,,,"CDISC: C64810
A measurement of the nitrite in a urine specimen.

For Lab codes in AE Requiring Additional Data, there should be no SCATS",TEXTUAL FINDING,FINDINGS,LBTESTCD,NITRITE,LBTEST,Nitrite,,,,,,,,,AE Requiring Additional Data,Laboratory Assessment
NITRITE_C_URINE,URINALYSIS,,NITRIEU,LB,Nitrite,Urine Nitrite,URINE,,,,"NITRITE/ Urinalysis C
CDISC Not Exact Match
CDISC Submission Value: NITRITE
CDISC Code: C65047 
CDISC Synonyms: Nitrite
CDISC - A measurement of the nitrite in a urine specimen.",CATEGORIC FINDING,FINDINGS,LBTESTCD,NITRITE,LBTEST,Nitrite,,,,,,,,STICK,Laboratory Assessments,Urinalysis
NITRITE_UR,URINALYSIS,,NITRIEU2,LB,Nitrite,"Nitrite, Urinalysis",URINE,,,,"Sponsordefined: The investigators evaluation of a measurement of the nitrite in a urine specimen.

CDISC Code: C64810
CDISC Submission Value: NITRITE
CDISC Synonym(s): Nitrite
CDISC Definition: A measurement of the nitrite in a urine specimen.
NCI Preferred Term: Nitrite Measurement",CATEGORIC FINDING,FINDINGS,LBTESTCD,NITRITE,LBTEST,Nitrite,,,,,,,,STICK,Laboratory Assessments,Urine Dipstick
NITRITE_UR,URINALYSIS,,NITRIEU2,LB,Nitrite,"Nitrite, Urinalysis",URINE,,,,"Sponsordefined: The investigators evaluation of a measurement of the nitrite in a urine specimen.

CDISC Code: C64810
CDISC Submission Value: NITRITE
CDISC Synonym(s): Nitrite
CDISC Definition: A measurement of the nitrite in a urine specimen.
NCI Preferred Term: Nitrite Measurement",CATEGORIC FINDING,FINDINGS,LBTESTCD,NITRITE,LBTEST,Nitrite,,,,,,,,STICK,Laboratory Assessments,Urinalysis
NITRITE_UR,URINALYSIS,,NITRIEU2,LB,Nitrite,"Nitrite, Urinalysis",URINE,,,,"Sponsordefined: The investigators evaluation of a measurement of the nitrite in a urine specimen.

CDISC Code: C64810
CDISC Submission Value: NITRITE
CDISC Synonym(s): Nitrite
CDISC Definition: A measurement of the nitrite in a urine specimen.
NCI Preferred Term: Nitrite Measurement",CATEGORIC FINDING,FINDINGS,LBTESTCD,NITRITE,LBTEST,Nitrite,,,,,,,,STICK,Laboratory Assessments,Urinalysis - Urine Dipstick
OTHER ADJUDICATED EVENT TYPE,EVENT ADJUDICATION,,OTADEVTY,ZA,Other Adjudicated Event Type,Other Adjudicated Event Type,,,,,Sponsor defined: Used for Event Adjudication,CATEGORIC FINDING,FINDINGS,ZATESTCD,OTADEVTY,ZATEST,Other Adjudicated Event Type,,,,,,,,TYPE_OF_ADJUDICATED_EVENT,Event Adjudication,General
OXYGEN_SATURATION,VITAL SIGNS,,OXYSAT,VS,Oxygen Saturation,Oxygen Saturation,,,,,"Oxygen saturation

To be used for assessments by pulse oximetry (small clip on e.g. finger), not assessment based on blood sample.",NUMERIC FINDING,FINDINGS,VSTESTCD,OXYSAT,VSTEST,Oxygen Saturation,%,PERCENTAGE,,,,,,,Vital Signs,Vital Signs
PAIN01_02_HOW_WOULD_YOU_RATE_THE_PAIN_AT_ITS_WORST_IN_YOUR_TARGET_KNEE,PAIN RATING,,PAIN0102,QS,Pain Rating,Pain Rating - How Would You Rate the Pain at Its Worst in Your Target Knee,,,,,Pain Rating - How would you rate the pain at its worst in your target knee in the past 24 hours,CATEGORIC FINDING,FINDINGS,QSTC_PAIN01,PAIN0102,QSTN_PAIN01,PAIN01-Rate the Pain at Its Worst,,,,,,,,PAIN_RATING_2,Clinical Outcome Assessments,Pain Rating
PANCREATITIS,AE REQUIRING ADDITIONAL DATA,,PAN,CE,Pancreatitis,Pancreatitis,,,,,AE Requiring Additional Data for Pancreatitis,PERIODIC,EVENTS,NO_LINKAGE_NEEDED,No Linkage Needed,NO_LINKAGE_NEEDED,No Linkage Needed,,,,,,,,,AE Requiring Additional Data,Pancreatitis
PANCREATITIS ABDOMINAL PAIN,AE REQUIRING ADDITIONAL DATA,,PANABPN,FA,Significant Upper Abdominal Pain,Significant Upper Abdominal Pain,,,,,Did the subject have significant upper abdominal pain ?,CATEGORIC FINDING,FINDINGS,FATESTCD,PANABPN,FATEST,Significant upper abdominal pain,,,,,,,,YESNO,AE Requiring Additional Data,Pancreatitis
PANCREATITIS ACUTE COMPLICATION,AE REQUIRING ADDITIONAL DATA,PANCREATITIS COMPLICATIONS,PANACOMP,FA,Pancreatitis Complications,Any Acute Complications,,,,,Were any acute complications present during the course of the event?,CATEGORIC FINDING,FINDINGS,FATESTCD,PANACOMP,FATEST,Any acute complications,,,,,,,,YESNO,AE Requiring Additional Data,Pancreatitis
PANCREATITIS ACUTE OTHER IMAGING FINDING,AE REQUIRING ADDITIONAL DATA,PANCREATITIS IMAGING ACUTE,PANCONOT,FA,Pancreatitis Imaging Acute,Other Acute Pancreatitis Symptom,,,,,Other acute pancreatitis symptom,CATEGORIC FINDING,FINDINGS,FATESTCD,PANCONOT,FATEST,Other acute pancreatitis symptom,,,,,,,,YESNO,AE Requiring Additional Data,Pancreatitis
PANCREATITIS ALCOHOL CONSUMPTION,AE REQUIRING ADDITIONAL DATA,PANCREATITIS RISK FACTORS,PANALCON,FA,Pancreatitis Risk Factors,Risk Factor - Alcohol Consumption,,,,,Alcohol consumption,CATEGORIC FINDING,FINDINGS,FATESTCD,PANALCON,FATEST,Risk factor - Alcohol consumption,,,,,,,,YESNO,AE Requiring Additional Data,Pancreatitis
PANCREATITIS ATROPHY OF THE PANCREAS,AE REQUIRING ADDITIONAL DATA,PANCREATITIS IMAGING CHRONIC,PANATROP,FA,Pancreatitis Imaging Chronic,Atrophy of the Pancreas,,,,,"CDISC Not Found: 
Sponsor defined: Atrophy of the pancreas",CATEGORIC FINDING,FINDINGS,FATESTCD,PANATROP,FATEST,Atrophy of the pancreas,,,,,,,,YESNO,AE Requiring Additional Data,Pancreatitis
PANCREATITIS CALCIFICATION OF PANCREAS,AE REQUIRING ADDITIONAL DATA,PANCREATITIS IMAGING CHRONIC,PANCALCI,FA,Pancreatitis Imaging Chronic,Calcification of Pancreas,,,,,Calcification of pancreas,CATEGORIC FINDING,FINDINGS,FATESTCD,PANCALCI,FATEST,Calcification of pancreas,,,,,,,,YESNO,AE Requiring Additional Data,Pancreatitis
PANCREATITIS CHRONIC OTHER IMAGING FINDING,AE REQUIRING ADDITIONAL DATA,PANCREATITIS IMAGING CHRONIC,PANCHROT,FA,Pancreatitis Imaging Chronic,Other Chronic Pancreatitis Symptom,,,,,Other chronic pancreatitis symptom,CATEGORIC FINDING,FINDINGS,FATESTCD,PANCHROT,FATEST,Other chronic pancreatitis symptom,,,,,,,,YESNO,AE Requiring Additional Data,Pancreatitis
PANCREATITIS CT SCAN,AE REQUIRING ADDITIONAL DATA,PANCREATITIS IMAGING,PANCT,FA,Pancreatitis Imaging,Imaging Method - CT Scan,,,,,Imaging method -  CT scan,CATEGORIC FINDING,FINDINGS,FATESTCD,PANCT,FATEST,Imaging method - CT Scan,,,,,,,,YESNO,AE Requiring Additional Data,Pancreatitis
PANCREATITIS DILATATION OF PANCREATIC DUCTS,AE REQUIRING ADDITIONAL DATA,PANCREATITIS IMAGING CHRONIC,PANDILPD,FA,Pancreatitis Imaging Chronic,Dilatation of Pancreatic Ducts,,,,,Dilatation of pancreatic ducts,CATEGORIC FINDING,FINDINGS,FATESTCD,PANDILPD,FATEST,Dilatation of pancreatic ducts,,,,,,,,YESNO,AE Requiring Additional Data,Pancreatitis
PANCREATITIS DILATED COMMON BILE DUCT,AE REQUIRING ADDITIONAL DATA,PANCREATITIS IMAGING ACUTE,PANDILDU,FA,Pancreatitis Imaging Acute,Dilated Common Bile Duct,,,,,Dilated common bile duct,CATEGORIC FINDING,FINDINGS,FATESTCD,PANDILDU,FATEST,Dilated common bile duct pancretitis,,,,,,,,YESNO,AE Requiring Additional Data,Pancreatitis
PANCREATITIS FAMILY HISTORY OF PANCREATITIS,AE REQUIRING ADDITIONAL DATA,PANCREATITIS RISK FACTORS,PANFHISP,FA,Pancreatitis Risk Factors,Risk Factor -Family Hist of Pancreatitis,,,,,Family history of pancreatitis,CATEGORIC FINDING,FINDINGS,FATESTCD,PANFHISP,FATEST,Risk factor -Family hist of pancreatitis,,,,,,,,YESNO,AE Requiring Additional Data,Pancreatitis
PANCREATITIS FEVER,AE REQUIRING ADDITIONAL DATA,PANCREATITIS SIGNS AND SYMPTOMS,PANFEVER,FA,Pancreatitis Signs And Symptoms,Fever as Symptom,,,,,Pancreatitis Signs/symptoms  - Fever,CATEGORIC FINDING,FINDINGS,FATESTCD,PANFEVER,FATEST,Fever during Course of Pancreatitis,,,,,,,,YESNO,AE Requiring Additional Data,Pancreatitis
PANCREATITIS GASTROINTESTINAL HAEMORRHAGE,AE REQUIRING ADDITIONAL DATA,PANCREATITIS COMPLICATIONS,PANGIHEM,FA,Pancreatitis Complications,Acute Complications - GI Haemorrhage,,,,,"CDISC Not Found: 
Sponsor defined: Gastrointestinal haemorrhage",CATEGORIC FINDING,FINDINGS,FATESTCD,PANGIHEM,FATEST,Acute complications - GI Haemorrhage,,,,,,,,YESNO,AE Requiring Additional Data,Pancreatitis
PANCREATITIS HISTORY OF GALLSTONES,AE REQUIRING ADDITIONAL DATA,PANCREATITIS RISK FACTORS,PANHGALS,FA,Pancreatitis Risk Factors,Risk Factor - History of Gallstones,,,,,History of gallstones,CATEGORIC FINDING,FINDINGS,FATESTCD,PANHGALS,FATEST,Risk factor - History of gallstones,,,,,,,,YESNO,AE Requiring Additional Data,Pancreatitis
PANCREATITIS HYPER-CALCAEMIA,AE REQUIRING ADDITIONAL DATA,PANCREATITIS RISK FACTORS,PANHYCAL,FA,Pancreatitis Risk Factors,Risk Factor - Hyper-Calcaemia,,,,,Hyper-calcaemia,CATEGORIC FINDING,FINDINGS,FATESTCD,PANHYCAL,FATEST,Risk factor - Hyper-calcaemia,,,,,,,,YESNO,AE Requiring Additional Data,Pancreatitis
PANCREATITIS HYPER-TRIGLYCERIDEMIA,AE REQUIRING ADDITIONAL DATA,PANCREATITIS RISK FACTORS,PANHTGLY,FA,Pancreatitis Risk Factors,Risk Factor - Hyper-Triglyceridemia,,,,,Hyper-triglyceridemia,CATEGORIC FINDING,FINDINGS,FATESTCD,PANHTGLY,FATEST,Risk factor - Hyper-triglyceridemia,,,,,,,,YESNO,AE Requiring Additional Data,Pancreatitis
PANCREATITIS IMAGE CONSISTENT WITH ACUTE PANCREATITIS,AE REQUIRING ADDITIONAL DATA,PANCREATITIS IMAGING ACUTE,PANIACON,FA,Pancreatitis Imaging Acute,Imaging Consistent with Acute Pan,,,,,Was imaging consistent with acute pancreatitis?,CATEGORIC FINDING,FINDINGS,FATESTCD,PANIACON,FATEST,Imaging consistent with acute pan,,,,,,,,YESNO,AE Requiring Additional Data,Pancreatitis
PANCREATITIS IMAGE CONSISTENT WITH CHRONIC PANCREATITIS,AE REQUIRING ADDITIONAL DATA,PANCREATITIS IMAGING CHRONIC,PANICCON,FA,Pancreatitis Imaging Chronic,Imaging Consistent with Chronic Pan,,,,,Was imaging consistent with chronic pancreatitis?,CATEGORIC FINDING,FINDINGS,FATESTCD,PANICCON,FATEST,Imaging consistent with chronic pan,,,,,,,,YESNO,AE Requiring Additional Data,Pancreatitis
PANCREATITIS IMAGE CONSISTENT WITH GALLSTONE,AE REQUIRING ADDITIONAL DATA,PANCREATITIS IMAGING,PANIGON2,FA,Pancreatitis Imaging,Imaging Consistent with Gallstone,,,,,Was imaging consistent with presence of gallstones?,CATEGORIC FINDING,FINDINGS,FATESTCD,PANIGCON,FATEST,Imaging consistent with gallstone,,,,,,,,YESNO,AE Requiring Additional Data,Pancreatitis
PANCREATITIS IMAGING PERFORMED,AE REQUIRING ADDITIONAL DATA,PANCREATITIS IMAGING,PANIMAPE,FA,Pancreatitis Imaging,Was Imaging Performed,,,,,Was imaging performed in relation to pancreatitis?,CATEGORIC FINDING,FINDINGS,FATESTCD,PANIMAPE,FATEST,Was imaging performed,,,,,,,,YESNO,AE Requiring Additional Data,Pancreatitis
PANCREATITIS MRI,AE REQUIRING ADDITIONAL DATA,PANCREATITIS IMAGING,PANMRI,FA,Pancreatitis Imaging,Imaging Method - MRI,,,,,Imaging method - MRI,CATEGORIC FINDING,FINDINGS,FATESTCD,PANMRI,FATEST,Imaging method - MRI,,,,,,,,YESNO,AE Requiring Additional Data,Pancreatitis
PANCREATITIS NAUSEA,AE REQUIRING ADDITIONAL DATA,PANCREATITIS SIGNS AND SYMPTOMS,PANNASEA,FA,Pancreatitis Signs And Symptoms,Nausea as Symptom,,,,,Pancreatitis signs/symptoms  - Nausea,CATEGORIC FINDING,FINDINGS,FATESTCD,PANNASEA,FATEST,Nausea during Course of Pancreatitis,,,,,,,,YESNO,AE Requiring Additional Data,Pancreatitis
PANCREATITIS NECROTISING,AE REQUIRING ADDITIONAL DATA,PANCREATITIS IMAGING ACUTE,PANNECRP,FA,Pancreatitis Imaging Acute,Necrotising Pancreatitis,,,,,Necrotising pancreatitis,CATEGORIC FINDING,FINDINGS,FATESTCD,PANNECRP,FATEST,Necrotising pancreatitis,,,,,,,,YESNO,AE Requiring Additional Data,Pancreatitis
PANCREATITIS OBSTRUCTIVE GALL-STONE,AE REQUIRING ADDITIONAL DATA,PANCREATITIS IMAGING ACUTE,PANOBSTR,FA,Pancreatitis Imaging Acute,Obstructive Gall-Stone,,,,,Obstructive gall-stone,CATEGORIC FINDING,FINDINGS,FATESTCD,PANOBSTR,FATEST,Obstructive gall-stone,,,,,,,,YESNO,AE Requiring Additional Data,Pancreatitis
PANCREATITIS OEDEMATOUS OR INTERSTITIAL PANCREATITIS,AE REQUIRING ADDITIONAL DATA,PANCREATITIS IMAGING ACUTE,PANOEDIP,FA,Pancreatitis Imaging Acute,Oedematous or Interstitial Pancreatitis,,,,,Oedematous or interstitial pancreatitis,CATEGORIC FINDING,FINDINGS,FATESTCD,PANOEDIP,FATEST,Oedematous or interstitial pancreatitis,,,,,,,,YESNO,AE Requiring Additional Data,Pancreatitis
PANCREATITIS OTHER,AE REQUIRING ADDITIONAL DATA,PANCREATITIS IMAGING,PANIMAOT,FA,Pancreatitis Imaging,Imaging Method - Other,,,,,Other imaging method,CATEGORIC FINDING,FINDINGS,FATESTCD,PANIMAOT,FATEST,Imaging method - Other,,,,,,,,YESNO,AE Requiring Additional Data,Pancreatitis
PANCREATITIS OTHER COMPLIATION,AE REQUIRING ADDITIONAL DATA,PANCREATITIS COMPLICATIONS,PANACOOT,FA,Pancreatitis Complications,Acute Complications - Other,,,,,Other acute complication,CATEGORIC FINDING,FINDINGS,FATESTCD,PANACOOT,FATEST,Acute complications - Other,,,,,,,,YESNO,AE Requiring Additional Data,Pancreatitis
PANCREATITIS OTHER RISK,AE REQUIRING ADDITIONAL DATA,PANCREATITIS RISK FACTORS,PANRISOT,FA,Pancreatitis Risk Factors,Risk Factor - Other,,,,,Other risk/confounding factor,CATEGORIC FINDING,FINDINGS,FATESTCD,PANRISOT,FATEST,Risk factor - Other,,,,,,,,YESNO,AE Requiring Additional Data,Pancreatitis
PANCREATITIS OTHER SYMPTOM,AE REQUIRING ADDITIONAL DATA,PANCREATITIS SIGNS AND SYMPTOMS,PANSYOT,FA,Pancreatitis Signs And Symptoms,Other Symptom,,,,,Pancreatitis signs/symptoms  - Other,CATEGORIC FINDING,FINDINGS,FATESTCD,PANSYOT,FATEST,Other symptom,,,,,,,,YESNO,AE Requiring Additional Data,Pancreatitis
PANCREATITIS PERI-PANCREATIC FLUID,AE REQUIRING ADDITIONAL DATA,PANCREATITIS IMAGING ACUTE,PANPERPF,FA,Pancreatitis Imaging Acute,Peri-Pancreatic Fluid,,,,,Peri-pancreatic fluid,CATEGORIC FINDING,FINDINGS,FATESTCD,PANPERPF,FATEST,Peri-pancreatic fluid,,,,,,,,YESNO,AE Requiring Additional Data,Pancreatitis
PANCREATITIS PSEUDOCYSTS,AE REQUIRING ADDITIONAL DATA,PANCREATITIS IMAGING CHRONIC,PANPSEUD,FA,Pancreatitis Imaging Chronic,Pseudocysts,,,,,Pseudocysts,CATEGORIC FINDING,FINDINGS,FATESTCD,PANPSEUD,FATEST,Pseudocysts,,,,,,,,YESNO,AE Requiring Additional Data,Pancreatitis
PANCREATITIS RENAL FAILURE REQUIRING DIALYSIS,AE REQUIRING ADDITIONAL DATA,PANCREATITIS COMPLICATIONS,PANRENFD,FA,Pancreatitis Complications,Acute Complications - Renal Failure,,,,,Renal failure requiring dialysis,CATEGORIC FINDING,FINDINGS,FATESTCD,PANRENFD,FATEST,Acute complications - Renal Failure,,,,,,,,YESNO,AE Requiring Additional Data,Pancreatitis
PANCREATITIS RESPIRATORY FAILURE REQUIRING VENTILATION,AE REQUIRING ADDITIONAL DATA,PANCREATITIS COMPLICATIONS,PANRESFV,FA,Pancreatitis Complications,Acute Complications -Respiratory Failure,,,,,Respiratory failure requiring ventilation,CATEGORIC FINDING,FINDINGS,FATESTCD,PANRESFV,FATEST,Acute complications -Respiratory failure,,,,,,,,YESNO,AE Requiring Additional Data,Pancreatitis
PANCREATITIS RISK FACTORS,AE REQUIRING ADDITIONAL DATA,PANCREATITIS RISK FACTORS,PANRRFAC,FA,Pancreatitis Risk Factors,Pancreatitis Risk Factors,,,,,Were there any relevant risk/confounding factors identified?,CATEGORIC FINDING,FINDINGS,FATESTCD,PANRRFAC,FATEST,Pancreatitis Risk factors,,,,,,,,YESNO,AE Requiring Additional Data,Pancreatitis
PANCREATITIS SEPSIS,AE REQUIRING ADDITIONAL DATA,PANCREATITIS COMPLICATIONS,PANSEPSI,FA,Pancreatitis Complications,Acute Complications - Sepsis,,,,,Sepsis,CATEGORIC FINDING,FINDINGS,FATESTCD,PANSEPSI,FATEST,Acute complications - Sepsis,,,,,,,,YESNO,AE Requiring Additional Data,Pancreatitis
PANCREATITIS SYMPTOMS,AE REQUIRING ADDITIONAL DATA,PANCREATITIS SIGNS AND SYMPTOMS,PANSYMP,FA,Pancreatitis Signs And Symptoms,Symptoms Present During Event,,,,,Were other signs/symptoms present during the course of the event?,CATEGORIC FINDING,FINDINGS,FATESTCD,PANSYMP,FATEST,Symptoms present during event,,,,,,,,YESNO,AE Requiring Additional Data,Pancreatitis
PANCREATITIS TRAUMA TO THE PANCREAS,AE REQUIRING ADDITIONAL DATA,PANCREATITIS RISK FACTORS,PANTRUMA,FA,Pancreatitis Risk Factors,Risk Factor - Trauma to the Pancreas,,,,,Trauma to the pancreas (incl. endoscopic retrograde cholangiopancreatography (ERCP)),CATEGORIC FINDING,FINDINGS,FATESTCD,PANTRUMA,FATEST,Risk factor - Trauma to the pancreas,,,,,,,,YESNO,AE Requiring Additional Data,Pancreatitis
PANCREATITIS TREATMENT,AE REQUIRING ADDITIONAL DATA,,PANTRT,FA,Treatment Type,Treatment Type,,,,,What treatment(s) did the subject receive for this condition?,CATEGORIC FINDING,FINDINGS,FATESTCD,PANTRT,FATEST,Treatment type,,,,,,,,TREATMENT_YES_NO_GROUP,AE Requiring Additional Data,Pancreatitis
PANCREATITIS ULTRASOUND,AE REQUIRING ADDITIONAL DATA,PANCREATITIS IMAGING,PANULTRA,FA,Pancreatitis Imaging,Imaging Method - Ultrasound,,,,,Imaging method - ultrasound.,CATEGORIC FINDING,FINDINGS,FATESTCD,PANULTRA,FATEST,Imaging method - Ultrasound,,,,,,,,YESNO,AE Requiring Additional Data,Pancreatitis
PANCREATITIS VOMITING,AE REQUIRING ADDITIONAL DATA,PANCREATITIS SIGNS AND SYMPTOMS,PANVOMIT,FA,Pancreatitis Signs And Symptoms,Vomiting as Symptom,,,,,Pancreatitis signs/symptoms  - Vomiting,CATEGORIC FINDING,FINDINGS,FATESTCD,PANVOMIT,FATEST,Vomiting during Course of Pancreatitis,,,,,,,,YESNO,AE Requiring Additional Data,Pancreatitis
PH_UR,URINALYSIS,,PHU2,LB,pH,PH Dipstick,URINE,,,,"Sponsor defined: The investigators evaluation of the negative logarithm (base 10) of the concentration of hydronium ions, which is used as a measure of the acidity or alkalinity of a fluid.",CATEGORIC FINDING,FINDINGS,LBTESTCD,PH,LBTEST,pH,,,,,,,,STICK,Laboratory Assessments,Urine Dipstick
PH_UR,URINALYSIS,,PHU2,LB,pH,PH Dipstick,URINE,,,,"Sponsor defined: The investigators evaluation of the negative logarithm (base 10) of the concentration of hydronium ions, which is used as a measure of the acidity or alkalinity of a fluid.",CATEGORIC FINDING,FINDINGS,LBTESTCD,PH,LBTEST,pH,,,,,,,,STICK,Laboratory Assessments,Urinalysis
PH_UR,URINALYSIS,,PHU2,LB,pH,PH Dipstick,URINE,,,,"Sponsor defined: The investigators evaluation of the negative logarithm (base 10) of the concentration of hydronium ions, which is used as a measure of the acidity or alkalinity of a fluid.",CATEGORIC FINDING,FINDINGS,LBTESTCD,PH,LBTEST,pH,,,,,,,,STICK,Laboratory Assessments,Urinalysis - Urine Dipstick
PH_URINE,URINALYSIS,,PHU,LB,pH,Urine pH,URINE,,,,"CDISC code: C45997
CDISC submission value: PH
CDISC synonym(s): pH
CDISC Description: A measure of the acidity or alkalinity of a fluid on a scale of 0 to 14.(NCI)
NCI preferred term: pH",NUMERIC FINDING,FINDINGS,LBTESTCD,PH,LBTEST,pH,no unit,NO UNIT,,,,,50560-2,,Laboratory Assessments,Urinalysis
PLATELETS,AE REQUIRING ADDITIONAL DATA,,PLAT,LB,Platelets,Platelets,,,,,A measurement of the platelets (non-nucleated thrombocytes),NUMERIC FINDING,FINDINGS,LBTESTCD,PLAT,LBTEST,Platelets,10^9/L,CELL COUNT,,,,,,,AE Requiring Additional Data,Laboratory Assessment
POTASSIUM,AE REQUIRING ADDITIONAL DATA,,K,LB,Potassium,"Potassium, AE Requiring Additional Data",,,,,A measurement of the potassium,NUMERIC FINDING,FINDINGS,LBTESTCD,K,LBTEST,Potassium,mmol/L,CONCENTRATION,39.1,,,,,,AE Requiring Additional Data,Laboratory Assessment
POTASSIUM_SERUM,BIOCHEMISTRY,,KS,LB,Potassium,"Potassium, Biochemistry",SERUM,,,,"CDISC code: C64853
CDISC submission value: K
CDISC synonym(s): Potassium
CDISC Description: A measurement of the potassium in a biological specimen.
NCI preferred term: Potassium Measurement",NUMERIC FINDING,FINDINGS,LBTESTCD,K,LBTEST,Potassium,mmol/L,CONCENTRATION,39.1,mmol/L,mEq/L,,2823-3,,Laboratory Assessments,Biochemistry
PROTEIN_URINE,AE REQUIRING ADDITIONAL DATA,,PROTU4,LB,Protein,Protein,URINE,,,,"CDISC: C64858
A measurement of the total protein in a biological specimen.

For Lab codes in AE Requiring Additional Data, there should be no SCATS",NUMERIC FINDING,FINDINGS,LBTESTCD,PROT,LBTEST,Protein,g/L,CONCENTRATION,,,,,,,AE Requiring Additional Data,Laboratory Assessment
PROTHROMBIN_TIME,AE REQUIRING ADDITIONAL DATA,,PT,LB,Prothrombin Time,"Prothrombin Time, AE Requiring Additional Data",,,,,A blood clotting measurement that evaluates the extrinsic pathway of coagulation,NUMERIC FINDING,FINDINGS,LBTESTCD,PT,LBTEST,Prothrombin Time,s,TIME,,,,,,,AE Requiring Additional Data,Laboratory Assessment
PROT_UR,URINALYSIS,,PROTU2,LB,Protein,"Protein Urine, Stick",URINE,,,,"The investigators evaluation of a measurement of a group of complex organic macromolecules composed of one or more alpha-L-amino acid chains in urine.
Code:C64858
CDISC Code Value: PROT
CDISC Value Label: Protein
CDISC synonym(s): Protein
CDISC definition: A measurement of the total protein in a biological specimen.
NCI preferred term: Total Protein Measurement",CATEGORIC FINDING,FINDINGS,LBTESTCD,PROT,LBTEST,Protein,,,,,,,50561-0,STICK,Laboratory Assessments,Urine Dipstick
PROT_UR,URINALYSIS,,PROTU2,LB,Protein,"Protein Urine, Stick",URINE,,,,"The investigators evaluation of a measurement of a group of complex organic macromolecules composed of one or more alpha-L-amino acid chains in urine.
Code:C64858
CDISC Code Value: PROT
CDISC Value Label: Protein
CDISC synonym(s): Protein
CDISC definition: A measurement of the total protein in a biological specimen.
NCI preferred term: Total Protein Measurement",CATEGORIC FINDING,FINDINGS,LBTESTCD,PROT,LBTEST,Protein,,,,,,,50561-0,STICK,Laboratory Assessments,Urinalysis
PROT_UR,URINALYSIS,,PROTU2,LB,Protein,"Protein Urine, Stick",URINE,,,,"The investigators evaluation of a measurement of a group of complex organic macromolecules composed of one or more alpha-L-amino acid chains in urine.
Code:C64858
CDISC Code Value: PROT
CDISC Value Label: Protein
CDISC synonym(s): Protein
CDISC definition: A measurement of the total protein in a biological specimen.
NCI preferred term: Total Protein Measurement",CATEGORIC FINDING,FINDINGS,LBTESTCD,PROT,LBTEST,Protein,,,,,,,50561-0,STICK,Laboratory Assessments,Urinalysis - Urine Dipstick
PT_PLASMA,COAGULATION PARAMETER,,PTP,LB,Prothrombin Time,"Prothrombin Time, Plasma",PLASMA,,,,"CDISC submission value: PT
CDISC synonym: Prothrombin Time
CDISC code: C62656
CDISC definition: A blood clotting measurement that evaluates the extrinsic pathway of coagulation and is expressed in units of time or percent activity.",NUMERIC FINDING,FINDINGS,LBTESTCD,PT,LBTEST,Prothrombin Time,s,TIME,,,,,5902-2,,Laboratory Assessments,Coagulation Parameters
PULSE,VITAL SIGNS,,PULSE,VS,Pulse Rate,Pulse,,,,SUPINE|SITTING,"CDISC code: C49676
CDISC submission value: PULSE
CDISC synonym(s): Pulse Rate
CDISC Description: The rate of the pulse as observed in an artery, expressed as beats per minute. It can be measured at several anatomical sites, including the wrist, neck, temple, groin, behind the knees, or on top of the foot. (NCI)
NCI preferred term: Pulse Rate",NUMERIC FINDING,FINDINGS,VSTESTCD,PULSE,VSTEST,Pulse Rate,beats/min,BEAT RATE,,Hz,,,,,Vital Signs,Vital Signs
RACE,DEMOGRAPHY,,RACE,DM,Race,Race,,,,,"CDISC: Race of the subject. In cases of mixed race, primary race should be listed. If additional race values are collected, they should be represented as separate records in the Subject Characteristics domain with TESTCD of ""RACEOTH"". The variable itself is required by FDA, but with ongoing discussions in Europe about the permissibility of collecting this data, the variable may be optional in future.",CATEGORIC FINDING,FINDINGS,NO_LINKAGE_NEEDED,No Linkage Needed,NO_LINKAGE_NEEDED,No Linkage Needed,,,,,,,,RACE,Informed Consent and Demography,Informed Consent and Demography
RACE,DEMOGRAPHY,,RACE,DM,Race,Race,,,,,"CDISC: Race of the subject. In cases of mixed race, primary race should be listed. If additional race values are collected, they should be represented as separate records in the Subject Characteristics domain with TESTCD of ""RACEOTH"". The variable itself is required by FDA, but with ongoing discussions in Europe about the permissibility of collecting this data, the variable may be optional in future.",CATEGORIC FINDING,FINDINGS,NO_LINKAGE_NEEDED,No Linkage Needed,NO_LINKAGE_NEEDED,No Linkage Needed,,,,,,,,RACE,Demography,Demography
RANDOMISATION_DATE,PROTOCOL MILESTONE,,RANDDT,DS,Randomized,Randomisation Date,,,,,Date of randomisation,DISPOSITION,EVENTS,PROTMLST,RANDOMIZED,PROTMLST,RANDOMIZED,,,,,,,,,Randomisation,Randomisation
RANDOMISATION_DATE,PROTOCOL MILESTONE,,RANDDT,DS,Randomized,Randomisation Date,,,,,Date of randomisation,DISPOSITION,EVENTS,PROTMLST,RANDOMIZED,PROTMLST,RANDOMIZED,,,,,,,,,Randomisation Criteria and Randomisation,Randomisation Criteria and Randomisation
RBC,AE REQUIRING ADDITIONAL DATA,,RBCU5,LB,Erythrocytes,"Erythrocytes in Urine, AE Requiring Additional Data",,,,,"CDISC Code: C51946

A measurement of the total erythrocytes in a biological specimen.

For Lab codes in AE Requiring Additional Data, there should be no SCATS",TEXTUAL FINDING,FINDINGS,LBTESTCD,RBC,LBTEST,Erythrocytes,,,,,,,,,AE Requiring Additional Data,Laboratory Assessment
RBC_UR,URINALYSIS,,RBCU2,LB,Erythrocytes,"Erythrocytes in Urine, Urinalysis",URINE,,,,"Sponsordefined: The investigators evaluation of the concentration of cells in urine specialized for oxygen transport, having a high concentration of hemoglobin in the cytoplasm and little else; biconcave, anucleate discs, 7nm diameter in mammals.

CDISC Code: C51946
CDISC Submission Value: RBC
CDISC Synonym(s): Erythrocytes; Red Blood Cells
CDISC Definition: A measurement of the total erythrocytes in a biological specimen.
NCI Preferred Term: Erythrocyte Count",CATEGORIC FINDING,FINDINGS,LBTESTCD,RBC,LBTEST,Erythrocytes,,,,,,,,STICK,Laboratory Assessments,Urine Dipstick
RBC_UR,URINALYSIS,,RBCU2,LB,Erythrocytes,"Erythrocytes in Urine, Urinalysis",URINE,,,,"Sponsordefined: The investigators evaluation of the concentration of cells in urine specialized for oxygen transport, having a high concentration of hemoglobin in the cytoplasm and little else; biconcave, anucleate discs, 7nm diameter in mammals.

CDISC Code: C51946
CDISC Submission Value: RBC
CDISC Synonym(s): Erythrocytes; Red Blood Cells
CDISC Definition: A measurement of the total erythrocytes in a biological specimen.
NCI Preferred Term: Erythrocyte Count",CATEGORIC FINDING,FINDINGS,LBTESTCD,RBC,LBTEST,Erythrocytes,,,,,,,,STICK,Laboratory Assessments,Urinalysis
RBC_UR,URINALYSIS,,RBCU2,LB,Erythrocytes,"Erythrocytes in Urine, Urinalysis",URINE,,,,"Sponsordefined: The investigators evaluation of the concentration of cells in urine specialized for oxygen transport, having a high concentration of hemoglobin in the cytoplasm and little else; biconcave, anucleate discs, 7nm diameter in mammals.

CDISC Code: C51946
CDISC Submission Value: RBC
CDISC Synonym(s): Erythrocytes; Red Blood Cells
CDISC Definition: A measurement of the total erythrocytes in a biological specimen.
NCI Preferred Term: Erythrocyte Count",CATEGORIC FINDING,FINDINGS,LBTESTCD,RBC,LBTEST,Erythrocytes,,,,,,,,STICK,Laboratory Assessments,Urinalysis - Urine Dipstick
REASON FOR UNDETERMINED DEATH CAUSE 1,EVENT ADJUDICATION,,REASDEA1,ZA,Reason for Undetermined Death Cause 1,Reason for Undetermined Death Cause 1,,,,,Sponsor defined: Used for Event Adjudication,CATEGORIC FINDING,FINDINGS,ZATESTCD,REASDEA1,ZATEST,Reason for Undetermined Cause of Death,,,,,,,,UNDETERMINED_DEATH_INF,Event Adjudication,Death
RESPIRATORY_RATE,VITAL SIGNS,,RESP,VS,Respiratory Rate,Respiratory Rate,,,,,"CDISC code:C49678
CDISC Submission Value: RESP
CDISC synonym(s): Respiratory Rate
CDISC: The rate of breathing (inhalation and exhalation) measured within in a unit time, usually expressed as breaths per minute. (NCI) 
NCI preferred term: Respiratory Rate",NUMERIC FINDING,FINDINGS,VSTESTCD,RESP,VSTEST,Respiratory Rate,breaths/min,RESPIRATORY RATE,,Hz,,,,,Vital Signs,Vital Signs
SEIZURE,EVENT ADJUDICATION,,HYSEIZUR,ZA,Seizure,Seizure,,,,,Did the subject have a seizure,CATEGORIC FINDING,FINDINGS,ZATESTCD,HYSEIZUR,ZATEST,Seizure,,,,,,,,YESNO,Event Adjudication,Hypoglycaemic Episode
SERUM_CREATININE,AE REQUIRING ADDITIONAL DATA,,CREATS3,LB,Creatinine,"Creatinine, AE Requiring Additional Data",SERUM,,,,"CDISC: C64547

The clear portion of the blood that remains after the removal of the blood cells and the clotting proteins. (NCI)

For Lab codes in AE Requiring Additional Data, there should be no SCATS",NUMERIC FINDING,FINDINGS,LBTESTCD,CREAT,LBTEST,Creatinine,umol/L,CONCENTRATION,113.118,,,,,,AE Requiring Additional Data,Laboratory Assessment
SEVERE_ACUTE_UPPER_ABDOMINAL_PAIN,EVENT ADJUDICATION,,ACUTPAIN,ZA,Severe Acute Upper Abdominal Pain,Severe Acute Upper Abdominal Pain,,,,,Severe Acute Upper Abdominal Pain,CATEGORIC FINDING,FINDINGS,ZATESTCD,ACUTPAIN,ZATEST,Severe Acute Upper Abdominal Pain,,,,,,,,YESNO,Event Adjudication,Acute Pancreatitis
SEVERITY OF PANCREATITIS,EVENT ADJUDICATION,,SEVPANCR,ZA,Severity of Pancreatitis,Severity of Pancreatitis,,,,,Sponsor defined: Used for Event Adjudication,CATEGORIC FINDING,FINDINGS,ZATESTCD,SEVPANCR,ZATEST,Severity of Pancreatitis,,,,,,,,PANCREATITIS_SEVERITY,Event Adjudication,Acute Pancreatitis
SEX,DEMOGRAPHY,,SEX,DM,Sex,Sex,,,,,"CDISC: M, F, U for Male, Female, Unknown",CATEGORIC FINDING,FINDINGS,NO_LINKAGE_NEEDED,No Linkage Needed,NO_LINKAGE_NEEDED,No Linkage Needed,,,,,,,,SEX,Informed Consent and Demography,Informed Consent and Demography
SEX,DEMOGRAPHY,,SEX,DM,Sex,Sex,,,,,"CDISC: M, F, U for Male, Female, Unknown",CATEGORIC FINDING,FINDINGS,NO_LINKAGE_NEEDED,No Linkage Needed,NO_LINKAGE_NEEDED,No Linkage Needed,,,,,,,,SEX,Demography,Demography
SODIUM,AE REQUIRING ADDITIONAL DATA,,SODIUM,LB,Sodium,"Sodium, AE Requiring Additional Data",,,,,Sodium CDISC: C64809,NUMERIC FINDING,FINDINGS,LBTESTCD,SODIUM,LBTEST,Sodium,mmol/L,CONCENTRATION,23.0,,,,,,AE Requiring Additional Data,Laboratory Assessment
SODIUM_SERUM,BIOCHEMISTRY,,SODIUMS,LB,Sodium,"Sodium, Biochemistry",SERUM,,,,"CDISC code: C64809
CDISC submission value: SODIUM
CDISC synonym(s): Sodium
CDISC Description: A measurement of the sodium in a biological specimen.
NCI preferred term: Sodium Measurement",NUMERIC FINDING,FINDINGS,LBTESTCD,SODIUM,LBTEST,Sodium,mmol/L,CONCENTRATION,23.0,mmol/L,mEq/L,,2951-2,,Laboratory Assessments,Biochemistry
SOURCE OF ADJUDICATED EVENT,EVENT ADJUDICATION,,SOURADEV,ZA,Source of Adjudicated Event,Source of Adjudicated Event,,,,,Sponsor defined: Used for Event Adjudication,CATEGORIC FINDING,FINDINGS,ZATESTCD,SOURADEV,ZATEST,Source of Adjudicated Event,,,,,,,,SOURCE_OF_ADJUDICATED_EVENT,Event Adjudication,General
SUBJECT FASTING,COLLECTION OF SAMPLES,,YNF,LB,Subject Fasting,Subject Fasting,,,,,Subject fasting,CATEGORIC FINDING,FINDINGS,LBTESTCD,FASTYN,LBTEST,Subject Fasting,,,,,,,,YESNO,Laboratory Assessments,Collection of Samples
SUBJECT_DIED,EVENT ADJUDICATION,,SUBJDIED,ZA,Subject Died,Subject Died,,,,,Did the subject die from this severe hypoglycemic episode,CATEGORIC FINDING,FINDINGS,ZATESTCD,SUBJDIED,ZATEST,Subject Died,,,,,,,,YESNO,Event Adjudication,Hypoglycaemic Episode
SYMPTOM OF PANCREATITIS 1,EVENT ADJUDICATION,,SYMPANC1,ZA,Symptom of Pancreatitis 1,Symptom of Pancreatitis 1,,,,,Sponsor defined: Used for Event Adjudication,CATEGORIC FINDING,FINDINGS,ZATESTCD,SYMPANC1,ZATEST,Symptom of Pancreatitis 1,,,,,,,,PANCREATITIS_DIAGNOSTIC_CRIT,Event Adjudication,Acute Pancreatitis
SYMPTOM OF PANCREATITIS 2,EVENT ADJUDICATION,,SYMPANC2,ZA,Symptom of Pancreatitis 2,Symptom of Pancreatitis 2,,,,,Sponsor defined: Used for Event Adjudication,CATEGORIC FINDING,FINDINGS,ZATESTCD,SYMPANC2,ZATEST,Symptom of Pancreatitis 2,,,,,,,,PANCREATITIS_DIAGNOSTIC_CRIT,Event Adjudication,Acute Pancreatitis
SYMPTOM OF PANCREATITIS 3,EVENT ADJUDICATION,,SYMPANC3,ZA,Symptom of Pancreatitis 3,Symptom of Pancreatitis 3,,,,,Sponsor defined: Used for Event Adjudication,CATEGORIC FINDING,FINDINGS,ZATESTCD,SYMPANC3,ZATEST,Symptom of Pancreatitis 3,,,,,,,,PANCREATITIS_DIAGNOSTIC_CRIT,Event Adjudication,Acute Pancreatitis
SYMPTOM OF UNSTABLE ANGINA PECTORIS 1,EVENT ADJUDICATION,,SYMUNMI1,ZA,Symptom of Unstable Angina Pectoris 1,Symptom of Unstable Angina Pectoris 1,,,,,Sponsor defined: Used for Event Adjudication,CATEGORIC FINDING,FINDINGS,ZATESTCD,SYMUNMI1,ZATEST,Symptom of Unstable Angina Pectoris 1,,,,,,,,UNSTABLE_ANGINA_SYMPTOMS,Event Adjudication,Acute Coronary Syndrome
SYMPTOM OF UNSTABLE ANGINA PECTORIS 2,EVENT ADJUDICATION,,SYMUNMI2,ZA,Symptom of Unstable Angina Pectoris 2,Symptom of Unstable Angina Pectoris 2,,,,,Sponsor defined: Used for Event Adjudication,CATEGORIC FINDING,FINDINGS,ZATESTCD,SYMUNMI2,ZATEST,Symptom of Unstable Angina Pectoris 2,,,,,,,,UNSTABLE_ANGINA_SYMPTOMS,Event Adjudication,Acute Coronary Syndrome
SYMPTOM OF UNSTABLE ANGINA PECTORIS 3,EVENT ADJUDICATION,,SYMUNMI3,ZA,Symptom of Unstable Angina Pectoris 3,Symptom of Unstable Angina Pectoris 3,,,,,Sponsor defined: Used for Event Adjudication,CATEGORIC FINDING,FINDINGS,ZATESTCD,SYMUNMI3,ZATEST,Symptom of Unstable Angina Pectoris 3,,,,,,,,UNSTABLE_ANGINA_SYMPTOMS,Event Adjudication,Acute Coronary Syndrome
SYMPTOM OF UNSTABLE ANGINA PECTORIS 4,EVENT ADJUDICATION,,SYMUNMI4,ZA,Symptom of Unstable Angina Pectoris 4,Symptom of Unstable Angina Pectoris 4,,,,,Sponsor defined: Used for Event Adjudication,CATEGORIC FINDING,FINDINGS,ZATESTCD,SYMUNMI4,ZATEST,Symptom of Unstable Angina Pectoris 4,,,,,,,,UNSTABLE_ANGINA_SYMPTOMS,Event Adjudication,Acute Coronary Syndrome
THROMBOCYTES_BLOOD,HAEMATOLOGY,,PLATB,LB,Platelets,Thrombocytes,BLOOD|SERUM,,,,"CDISC code: C51951
CDISC submission value: PLAT
CDISC synonym(s): Platelets
CDISC Description: A measurement of the platelets in a biological specimen.
NCI preferred term: Platelet Count",NUMERIC FINDING,FINDINGS,LBTESTCD,PLAT,LBTEST,Platelets,10^9/L,CELL COUNT,,10^9/L,1/mm^3,,777-3,,Laboratory Assessments,Haematology
TM01_01_PAIN_FREE_WALKING_DISTANCE_ON_FLAT_TREADMILL,TREADMILL,,TM0101,FT,Treadmill Test,Treadmill - Pain-Free Walking Distance on Flat Treadmill,,,,,Treadmill assessments - Pain-free walking distance on flat treadmill,NUMERIC FINDING,FINDINGS,FTTC_TM01,TM0101,FTTN_TM01,TM01-Pain-Free Walk Distance Flat,m,LENGTH,,,,,,,Clinical Outcome Assessments,Treadmill Test
TM01_02_PAIN_FREE_WALKING_DISTANCE_ON_INCLINED_TREADMILL,TREADMILL,,TM0102,FT,Treadmill Test,Treadmill - Pain-Free Walking Distance on Inclined Treadmill,,,,,Treadmill assessments - Pain-free walking distance on inclined treadmill,NUMERIC FINDING,FINDINGS,FTTC_TM01,TM0102,FTTN_TM01,TM01-Pain-Free Walk Distance Inclined,m,LENGTH,,,,,,,Clinical Outcome Assessments,Treadmill Test
TM01_03_MAX_WALKING_DISTANCE_ON_INCLINED_TREADMILL,TREADMILL,,TM0103,FT,Treadmill Test,Treadmill - Max Walking Distance on Inclined Treadmill,,,,,Treadmill assessments - Max. walking distance on inclined treadmill,NUMERIC FINDING,FINDINGS,FTTC_TM01,TM0103,FTTN_TM01,TM01-Max Walking Distance Inclined,m,LENGTH,,,,,,,Clinical Outcome Assessments,Treadmill Test
TOAST_CLASSIFICATION,EVENT ADJUDICATION,,TOASTCL,ZA,TOAST Classification,TOAST Classification,,,,,"Ischemic stroke classification according to the Trial of Org 10172 in Acute Stroke Treatment (TOAST) classification (Table 1) The classification is based on clinical features and on data collected by test results such as brain imaging (CT/CTA/MRI/MRA), cardiac imaging (transthoracal echocardiography, transoesophageal echocardiography, 24-hour Holter monitoring, cardiac CT), duplex ultrasound scanning of extracranial arteries, arteriography, and laboratory assessments for a prothrombotic state.",CATEGORIC FINDING,FINDINGS,ZATESTCD,TOASTCL,ZATEST,TOAST Classification,,,,,,,,CLASSIFICATION_TOAST,Event Adjudication,Cerebrovascular Event
TOTAL_PROTEIN_SERUM,BIOCHEMISTRY,,PROTS,LB,Protein,"Total Protein, g/dL",SERUM,,,,"CDISC submission value: PROT
CDISC code: C64858
CDISC synonym: Protein
CDISC: A measurement of a group of complex organic macromolecules composed of one or more alpha-L-amino acid chains in a biological specimen.",NUMERIC FINDING,FINDINGS,LBTESTCD,PROT,LBTEST,Protein,g/dL,CONCENTRATION,,g/L,,,,,Laboratory Assessments,Biochemistry
TYPE OF HEART FAILURE,EVENT ADJUDICATION,,TYHHEAFA,ZA,Type of Heart Failure,Type of Heart Failure,,,,,Sponsor defined: Used for Event Adjudication,CATEGORIC FINDING,FINDINGS,ZATESTCD,TYHHEAFA,ZATEST,Type of Heart Failure,,,,,,,,HEART_FAILURE_TYPE,Event Adjudication,Heart Failure
TYPE OF MYOCARDIAL INFARCTION,EVENT ADJUDICATION,,TYMYOINF,ZA,Type of Myocardial Infarction,Type of Myocardial Infarction,,,,,Sponsor defined: Used for Event Adjudication,CATEGORIC FINDING,FINDINGS,ZATESTCD,TYMYOINF,ZATEST,Type of Myocardial Infarction,,,,,,,,MI_TYPE_OF_ADJUDICATED_EVENT,Event Adjudication,Acute Coronary Syndrome
TYPE OF STROKE,EVENT ADJUDICATION,,TYSTROKE,ZA,Type of Stroke,Type of Stroke,,,,,Sponsor defined: Used for Event Adjudication,CATEGORIC FINDING,FINDINGS,ZATESTCD,TYSTROKE,ZATEST,Type of Stroke,,,,,,,,STROKE_TYPE,Event Adjudication,Cerebrovascular Event
T_LEUCOCYTES_C_BLOOD,HAEMATOLOGY,,WBCB,LB,Leukocytes,Leukocytes,BLOOD|SERUM,,,,"CDISC code: C51948
CDISC submission value: WBC
CDISC synonym(s): Leukocytes; White Blood Cells
CDISC Description: A measurement of the leukocytes in a biological specimen.
NCI preferred term: Leukocyte Count",NUMERIC FINDING,FINDINGS,LBTESTCD,WBC,LBTEST,Leukocytes,10^9/L,CELL COUNT,,10^9/L,1/mm^3,,6690-2,,Laboratory Assessments,Haematology
UNCONSCIOUS_COMA,EVENT ADJUDICATION,,UNCOCOMA,ZA,Unconscious/Coma,Unconscious/Coma,,,,,Was the subject unconscious/in coma,CATEGORIC FINDING,FINDINGS,ZATESTCD,UNCOCOMA,ZATEST,Unconscious/Coma,,,,,,,,YESNO,Event Adjudication,Hypoglycaemic Episode
UNDETERMINED_ETIOLOGY_REASON,EVENT ADJUDICATION,,UNDETIRE,ZA,Undetermined Etiology Reason,Undetermined Etiology Reason,,,,,"If TOAST classification is undetermined cause, Reason for undetermined etiology",CATEGORIC FINDING,FINDINGS,ZATESTCD,UNDETIRE,ZATEST,Undetermined Etiology Reason,,,,,,,,UNDETERMINED_ETIOLOGY,Event Adjudication,Cerebrovascular Event
UNDETERM_DEATH_SOURCE_INFO,EVENT ADJUDICATION,,UNDESOUR,ZA,Details in Source Data,Details in Source Data,,,,,Details in source data when outcome is undetermined cause of death,CATEGORIC FINDING,FINDINGS,ZATESTCD,UNDESOUR,ZATEST,Details in Source Data,,,,,,,,UNDETERMINED_DEATH_INF,Event Adjudication,Death
URINE_CULTURE,AE REQUIRING ADDITIONAL DATA,,URNCULRU,LB,Urine Culture,Urine Culture,URINE,,,,"A urine culture is used to diagnose a urinary tract infection (UTI) and to identify the bacteria or yeast.

For Lab codes in AE Requiring Additional Data, there should be no SCATS",TEXTUAL FINDING,FINDINGS,LBTESTCD,URNCULTR,LBTEST,Urine Culture,,,,,,,,,AE Requiring Additional Data,Laboratory Assessment
URINE_MICROSCOPY,AE REQUIRING ADDITIONAL DATA,,URNMICOU,LB,Urine Microscopy,Urine Microscopy,URINE,,,,This test looks at a sample of  urine under a microscope.,TEXTUAL FINDING,FINDINGS,LBTESTCD,URNMICRO,LBTEST,Urine Microscopy,,,,,,,,,AE Requiring Additional Data,Laboratory Assessment
URINE_SAMPLES_COLLECTED,COLLECTION OF SAMPLES,,URINECLU,LB,Have all urine samples been taken,Have All Urine Samples Been Taken,URINE,,,,"<CodeLists>
<CodeList Value=""LBTEST"" CodeSubmValue=""Have all samples been taken"" SpecimenType=""URINE""></CodeList>
<CodeList Value=""LBTESTCD"" CodeSubmValue=""LBALL""></CodeList>
</CodeLists>
Have all urine samples been taken?",CATEGORIC FINDING,FINDINGS,LBTESTCD,LBALL,LBTEST,Have All Samples Been Taken,,,,,,,,YESNO,Laboratory Assessments,Urinalysis
URINE_SAMPLES_COLLECTED,COLLECTION OF SAMPLES,,URINECLU,LB,Have all urine samples been taken,Have All Urine Samples Been Taken,URINE,,,,"<CodeLists>
<CodeList Value=""LBTEST"" CodeSubmValue=""Have all samples been taken"" SpecimenType=""URINE""></CodeList>
<CodeList Value=""LBTESTCD"" CodeSubmValue=""LBALL""></CodeList>
</CodeLists>
Have all urine samples been taken?",CATEGORIC FINDING,FINDINGS,LBTESTCD,LBALL,LBTEST,Have All Samples Been Taken,,,,,,,,YESNO,Laboratory Assessments,24 Hour Urine Collection
URINE_SAMPLES_COLLECTED,COLLECTION OF SAMPLES,,URINECLU,LB,Have all urine samples been taken,Have All Urine Samples Been Taken,URINE,,,,"<CodeLists>
<CodeList Value=""LBTEST"" CodeSubmValue=""Have all samples been taken"" SpecimenType=""URINE""></CodeList>
<CodeList Value=""LBTESTCD"" CodeSubmValue=""LBALL""></CodeList>
</CodeLists>
Have all urine samples been taken?",CATEGORIC FINDING,FINDINGS,LBTESTCD,LBALL,LBTEST,Have All Samples Been Taken,,,,,,,,YESNO,Laboratory Assessments,Collection of Samples
UROBILINOGEN_URINE,URINALYSIS,,UROBILU2,LB,Urobilinogen,Urobilinogen,URINE,,,,"CDISC:A measurement of the urobilinogen in a biological specimen.
CDISC synonym: Urobilinogen
CDISC preferred term: UROBIL
CDISC code: C64816",CATEGORIC FINDING,FINDINGS,LBTESTCD,UROBIL,LBTEST,Urobilinogen,,,,,,,,POS_NEG,Laboratory Assessments,Urinalysis
UROBIL_UR,URINALYSIS,,UROBILU,LB,Urobilinogen,Urobilinogen Urine,URINE,,,,"Sponsordefined: The investigators evaluation of a  measurement of the urobilinogen in urine.

CDISC Code: C64816
CDISC Submission Value: UROBIL
CDISC Synonym(s): Urobilinogen
CDISC Definition: A measurement of the urobilinogen in a biological specimen.
NCI Preferred Term: Urobilinogen Measurement",CATEGORIC FINDING,FINDINGS,LBTESTCD,UROBIL,LBTEST,Urobilinogen,,,,,,,,STICK,Laboratory Assessments,Urine Dipstick
UROBIL_UR,URINALYSIS,,UROBILU,LB,Urobilinogen,Urobilinogen Urine,URINE,,,,"Sponsordefined: The investigators evaluation of a  measurement of the urobilinogen in urine.

CDISC Code: C64816
CDISC Submission Value: UROBIL
CDISC Synonym(s): Urobilinogen
CDISC Definition: A measurement of the urobilinogen in a biological specimen.
NCI Preferred Term: Urobilinogen Measurement",CATEGORIC FINDING,FINDINGS,LBTESTCD,UROBIL,LBTEST,Urobilinogen,,,,,,,,STICK,Laboratory Assessments,Urinalysis
UROBIL_UR,URINALYSIS,,UROBILU,LB,Urobilinogen,Urobilinogen Urine,URINE,,,,"Sponsordefined: The investigators evaluation of a  measurement of the urobilinogen in urine.

CDISC Code: C64816
CDISC Submission Value: UROBIL
CDISC Synonym(s): Urobilinogen
CDISC Definition: A measurement of the urobilinogen in a biological specimen.
NCI Preferred Term: Urobilinogen Measurement",CATEGORIC FINDING,FINDINGS,LBTESTCD,UROBIL,LBTEST,Urobilinogen,,,,,,,,STICK,Laboratory Assessments,Urinalysis - Urine Dipstick
WAIST_CIRCUMFERENCE,BODY MEASUREMENT,,WSTCIR,VS,Waist Circumference,Waist Circumference,,,,,"CDISC code: C100948
CDISC submission value: WSTCIR
CDISC synonym(s): Waist Circumference
CDISC Description: The distance around an individual's midsection or waist.
NCI preferred term: Waist Circumference",NUMERIC FINDING,FINDINGS,VSTESTCD,WSTCIR,VSTEST,Waist Circumference,cm,LENGTH,,cm,in,Y|N,,,Body Measurements,Body Measurements
WBC,AE REQUIRING ADDITIONAL DATA,,WBC,LB,Leukocytes,White Blood Cells,,,,,"A measurement of the leukocytes in a biological specimen.
NCI preferred term: Leukocyte Count",NUMERIC FINDING,FINDINGS,LBTESTCD,WBC,LBTEST,Leukocytes,10^9/L,CELL COUNT,,10^9/L,,,,,AE Requiring Additional Data,Laboratory Assessment
WBC URINE,AE REQUIRING ADDITIONAL DATA,,WBCU4,LB,Leukocytes,"Leukocytes in Urine, AE Requiring Additional Data",URINE,,,,"CDISC Code: C65047

A measurement of the leukocytes in a biological specimen.

For Lab codes in AE Requiring Additional Data, there should be no SCATS",TEXTUAL FINDING,FINDINGS,LBTESTCD,WBC,LBTEST,Leukocytes,,,,,,,,,AE Requiring Additional Data,Laboratory Assessment
WBC_UR,URINALYSIS,,WBCU2,LB,Leukocytes,"Leukocytes in Urine, Urinalysis",URINE,,,,"Sponsordefined: The investigators evaluation of A measurement of the leukocytes in urine

CDISC Code: C51948
CDISC Submission Value: WBC
CDISC Synonym(s): Leukocytes; White Blood Cells
CDISC Definition: A measurement of the leukocytes in a biological specimen.
NCI Preferred Term: Leukocyte Count",CATEGORIC FINDING,FINDINGS,LBTESTCD,WBC,LBTEST,Leukocytes,,,,,,,58805-2,STICK,Laboratory Assessments,Urine Dipstick
WBC_UR,URINALYSIS,,WBCU2,LB,Leukocytes,"Leukocytes in Urine, Urinalysis",URINE,,,,"Sponsordefined: The investigators evaluation of A measurement of the leukocytes in urine

CDISC Code: C51948
CDISC Submission Value: WBC
CDISC Synonym(s): Leukocytes; White Blood Cells
CDISC Definition: A measurement of the leukocytes in a biological specimen.
NCI Preferred Term: Leukocyte Count",CATEGORIC FINDING,FINDINGS,LBTESTCD,WBC,LBTEST,Leukocytes,,,,,,,58805-2,STICK,Laboratory Assessments,Urinalysis
WBC_UR,URINALYSIS,,WBCU2,LB,Leukocytes,"Leukocytes in Urine, Urinalysis",URINE,,,,"Sponsordefined: The investigators evaluation of A measurement of the leukocytes in urine

CDISC Code: C51948
CDISC Submission Value: WBC
CDISC Synonym(s): Leukocytes; White Blood Cells
CDISC Definition: A measurement of the leukocytes in a biological specimen.
NCI Preferred Term: Leukocyte Count",CATEGORIC FINDING,FINDINGS,LBTESTCD,WBC,LBTEST,Leukocytes,,,,,,,58805-2,STICK,Laboratory Assessments,Urinalysis - Urine Dipstick
VersioningCheckActivityTopic,AE REQUIRING ADDITIONAL DATA,ACUTE KIDNEY INJURY CONDITIONS,AKICONDI,FA,VersioningCheckActivity,TestInstance,,,,,Test,CATEGORIC FINDING,FINDINGS,FATESTCD,AKICONDI,FATEST,AKI-Conditions,,,,,,,,YESNO,AE Requiring Additional Data,Acute Kidney Injury
VersioningCheckInstanceTopic,AE REQUIRING ADDITIONAL DATA,ACUTE KIDNEY INJURY CONDITIONS,AKICONDI,FA,Acute Kidney Injury Conditions,VersioningCheckInstance,,,,,Test,CATEGORIC FINDING,FINDINGS,FATESTCD,AKICONDI,FATEST,AKI-Conditions,,,,,,,,YESNO,AE Requiring Additional Data,Acute Kidney Injury
VersioningCheckGroupTopic,AE REQUIRING ADDITIONAL DATA,ACUTE KIDNEY INJURY CONDITIONS,AKICONDI,FA,Activity for group check,Instance for group check,,,,,Test,CATEGORIC FINDING,FINDINGS,FATESTCD,AKICONDI,FATEST,AKI-Conditions,,,,,,,,YESNO,VersioningCheckGroup,Testsubgroup
VersioningCheckSubgroupTopic,AE REQUIRING ADDITIONAL DATA,ACUTE KIDNEY INJURY CONDITIONS,AKICONDI,FA,Activity for subgroup check,Instance for subgroup check,,,,,Test,CATEGORIC FINDING,FINDINGS,FATESTCD,AKICONDI,FATEST,AKI-Conditions,,,,,,,,YESNO,AE Requiring Additional Data,VersioningCheckSubGroup
DisplayCheckTopic,AE REQUIRING ADDITIONAL DATA,ACUTE KIDNEY INJURY CONDITIONS,AKICONDI,FA,DisplayActivity,DisplayInstance,,,,,Test,CATEGORIC FINDING,FINDINGS,FATESTCD,AKICONDI,FATEST,AKI-Conditions,,,,,,,,YESNO,DisplayGroup,DisplaySubGroup